acc_x, acc_y, angular_z, stamp, 
-0.05086082488496547, 0.00651118753501423, 1.0263493252871773e-05, 7782000000
-0.036882531946067804, -0.005643858794859596, -0.00011218250181110294, 7788000000
-0.06257920411451952, -0.00015163483928903247, 7.682462739850185e-05, 7793000000
-0.05858570084352927, -0.007037393042611304, -0.00030396002063774085, 7798000000
-0.03581705784021937, -0.009171990385720401, -4.990489757734755e-05, 7803000000
-0.058770006636099194, 0.0016563816990496439, 0.00023206088632494296, 7808000000
-0.04413107582564639, 0.009018464701344375, -6.215260102431944e-05, 7813000000
-0.04498471802843952, 0.018526365463395596, -6.435340869289706e-05, 7847000000
-0.07826036309154878, 0.02015879431370186, 9.444509739980795e-05, 7852000000
-0.05896151041995813, 0.016482489532960932, -4.4919479873133575e-05, 7857000000
-0.08990526540666499, -0.007354805932229703, -0.0004279348508416807, 7862000000
-0.05728629363059442, -0.008224169857727863, 0.00014569252922520606, 7867000000
-0.04014523391268989, -0.016351846497543104, 0.00025920881816659055, 7872000000
-0.05748631893405562, -0.027171179957479988, -9.692313291033674e-05, 7877000000
-0.11039639116919034, 0.00031431235069117724, 0.01246296132783669, 7882000000
-0.11853567165050005, 0.03301457970134724, 0.07237796882019654, 7887000000
-0.11040678264128115, -0.050520746718476735, 0.1438977271157853, 7892000000
-0.08140874823865887, 0.16290012716714944, 0.22820299844503691, 7897000000
-0.07625629932688441, -0.059800909227245305, 0.2991268395681909, 7902000000
-0.11020004736660502, -0.11691555157759469, 0.4069982005574458, 7907000000
-0.04320078375798841, 0.09674040770389875, 0.5056278987303315, 7912000000
-0.18407420114678721, -0.037056866519822595, 0.5906956427657637, 7917000000
-0.1318014646961984, -0.0378171378089508, 0.7061066837878359, 7922000000
-0.11038483251766322, -0.030597318043689134, 0.8201105685579027, 7927000000
-0.09205878179278461, -0.059081388075302485, 0.9272531365832828, 7932000000
-0.043229139563611095, 0.07861560791503369, 1.0198970270368743, 7937000000
-0.06292350705246072, -0.020291379537148053, 1.093890882828989, 7942000000
-0.03863333512740721, -0.09070859039716746, 1.1460641339028654, 7947000000
-0.137861592692847, 0.06877008598560329, 1.2125167606653036, 7952000000
-0.04059346779766346, -0.07628245237980638, 1.27800470849615, 7957000000
-0.10030768753816244, 0.06222026566562625, 1.338379560468683, 7962000000
-0.0502152966060867, -0.022493202686578197, 1.3886898514478487, 7967000000
0.025197149821783157, -0.10048935555600191, 1.4278459760956177, 7972000000
-0.09744743556172734, 0.05049222027665204, 1.4535134452925034, 7977000000
-0.08445110893494168, -0.022376509299243844, 1.4682378936318847, 7982000000
0.03237010296759976, -0.11212504049812295, 1.4900528449792967, 7987000000
-0.14472625346474025, 0.09035534901133713, 1.5098013177825897, 7992000000
-0.008103366134848487, -0.1016314945279931, 1.528473806553788, 7997000000
-0.12270253563789901, 0.06060810988278124, 1.5437148380964616, 8002000000
-0.05558813220245036, -0.01858377278753677, 1.5541078873460246, 8007000000
0.021846552730244335, -0.11953332189132396, 1.5624571532523306, 8012000000
-0.20387024509998922, 0.1035012276862583, 1.564012652271697, 8017000000
-0.04441311030270162, 0.003240818687111742, 1.5617375583271085, 8022000000
0.0584446489105152, -0.10665553846259752, 1.5554828584831184, 8027000000
-0.15968239395838602, 0.0897883850822921, 1.5465543156325594, 8032000000
-0.04953967073287431, -0.019790713912865694, 1.5344830437715347, 8037000000
0.08503067789651135, -0.11277722603060192, 1.5221935650495104, 8042000000
-0.19864865696719475, 0.10383371127480415, 1.5086072988670776, 8047000000
-0.06330023933851023, -0.017846645303735285, 1.4950915715747912, 8052000000
0.08288712787326316, -0.10375158164564693, 1.483928361975312, 8057000000
-0.191136532414951, 0.0954715363277142, 1.474152011702013, 8062000000
-0.014047371591831948, -0.017077445323519916, 1.46658267396558, 8067000000
0.12444556721263074, -0.14862285118220378, 1.4620359981696196, 8072000000
-0.23974851650002468, 0.09549718741701821, 1.4600083610540049, 8077000000
-0.07937155608800545, -0.009532367835688364, 1.4604003473029905, 8082000000
0.12535868827024482, -0.12567403448207892, 1.4637723017985782, 8087000000
-0.2712128491551726, 0.10021210413863403, 1.4686375650234291, 8092000000
-0.02617282070168788, -0.00637627043545539, 1.4747325589136968, 8097000000
0.12596927800172364, -0.14368054212449116, 1.4811231046026962, 8102000000
-0.18562613031438335, 0.08219514096629273, 1.4906844509336286, 8107000000
-0.03723927383269267, -0.019932473125014342, 1.496583617540063, 8112000000
0.07035249945410998, -0.10982265314171114, 1.505807513593295, 8117000000
-0.2199843605614717, 0.10243610350999573, 1.5116307054087952, 8122000000
-0.0439493515932048, -0.047842033454166794, 1.5145174600730908, 8127000000
0.024374574331090484, -0.08712142539138218, 1.5196444710875308, 8132000000
-0.17050494633113797, 0.12753204941944626, 1.5215346410766446, 8137000000
-0.03434623811613496, -0.04999256283406978, 1.5211207076052424, 8142000000
0.06895427760852485, -0.1335880636832568, 1.5199266451794093, 8147000000
-0.15893786412180172, 0.12173309174624525, 1.5172466456980742, 8152000000
-0.045249573321666174, -0.00997994851926295, 1.513511713209454, 8157000000
0.046614430001006554, -0.11343670258600641, 1.508469769657822, 8162000000
-0.2155743638802425, 0.14239088863342628, 1.504857780871244, 8167000000
-0.053617309672463004, -0.02292717400208271, 1.499795074211471, 8172000000
0.03564788975824841, -0.12377880032431134, 1.4953971907106056, 8177000000
-0.15989535501547122, 0.14883860173965985, 1.4915699902925428, 8182000000
0.039279443844781645, -0.10692306474367905, 1.4879669385377938, 8187000000
-0.11338663344595265, 0.09824606540661268, 1.4864056451317795, 8192000000
-0.05650146950961798, -0.026974503107669898, 1.4846373117483256, 8197000000
0.010293228200155484, -0.1497041924437863, 1.484796948312827, 8202000000
-0.11917880974603462, 0.15439242581158397, 1.4852960053658537, 8207000000
-0.05078873292093275, -0.04066722383119244, 1.4862051700618992, 8212000000
-0.057879746835957945, -0.015252366390870962, 1.489049086709599, 8217000000
-0.05086822807044794, 0.021838546828490964, 1.4912497183898374, 8222000000
0.04452151627687135, -0.14512311127342167, 1.4943079911606887, 8227000000
-0.11117883669354622, 0.12739320624032535, 1.4969148043171872, 8232000000
-0.06477866831549325, -0.003415091970814337, 1.4995172181630045, 8237000000
0.028063185392061624, -0.12042050256929535, 1.5023653576456613, 8242000000
-0.1324015566617237, 0.13586810179032588, 1.5035541365853202, 8247000000
0.006981048880001634, -0.12687849214306893, 1.5052346775197802, 8252000000
-0.11516154701529625, 0.10465800065464677, 1.5064559710340375, 8257000000
-0.04709111376930414, 0.0035335067268811027, 1.5063719309614656, 8262000000
0.0026592637375631783, -0.11179591228133215, 1.5066030366532568, 8267000000
-0.13431583990192508, 0.13577305138099377, 1.505587285073171, 8272000000
-0.0358570154267336, -0.05087162373266292, 1.5042508972723811, 8277000000
-0.013253465378959923, -0.14960960421426256, 1.5030856182696795, 8282000000
-0.12255317588425127, 0.14055522090569283, 1.501204550085084, 8287000000
-0.06190008895939275, -0.028327636522239037, 1.501016017069431, 8292000000
-0.04768176326680369, -0.09815016001371304, 1.4981587343859162, 8297000000
-0.10834436665419449, 0.1136213216261747, 1.496781234190456, 8302000000
-0.03460483264441183, -0.01987783627414813, 1.4950916851508298, 8307000000
-0.050415956796717475, 0.0053034073663986644, 1.4946626035081323, 8312000000
-0.08154794211920387, -0.02686731264438574, 1.4937278566826142, 8317000000
0.009669427248335484, -0.17075388616118808, 1.4936193519859804, 8324000000
-0.08305753686533451, 0.08436158498054029, 1.493470742167123, 8329000000
-0.01104069865118046, -0.1373998798857632, 1.4937664422017902, 8334000000
-0.09082675989510886, 0.08171299382873397, 1.4951839009089223, 8339000000
-0.05049292111372925, 0.0009267320627400662, 1.4955369375371075, 8344000000
-0.029346641716513733, -0.16252821796081995, 1.4969005891260012, 8349000000
-0.11055729351695129, 0.09678188531858603, 1.4980054975303458, 8354000000
-0.04213223817194872, -0.03425144138377921, 1.4987690093816477, 8359000000
-0.034211294573362666, -0.16954877445510497, 1.5001610431474224, 8364000000
-0.09114812997814775, 0.1364682208963105, 1.5002880559771672, 8370000000
-0.02427855495999187, -0.1649802500030642, 1.5008847834131884, 8375000000
-0.05587634220717787, 0.12626471608986564, 1.50133874524531, 8380000000
-0.05477809523306444, -0.027017254025949185, 1.5008879564207445, 8385000000
-0.06211602749095775, -0.10182825053947725, 1.5015711868702948, 8391000000
-0.04982552803681053, 0.15180172037407272, 1.5009034075288503, 8396000000
-0.07926464756691504, -0.03190240610361073, 1.4999439693519625, 8401000000
-0.05299027793202673, -0.13347001790730562, 1.500389981273667, 8406000000
-0.08918719533730948, 0.11258695177952947, 1.4992188967925297, 8411000000
-0.044593390791685145, -0.04502325121784379, 1.4985332080895502, 8416000000
-0.05863302741097131, -0.016325264985666627, 1.4986440719291099, 8421000000
-0.057426494704696275, -6.168189428937265e-05, 1.497232851029011, 8426000000
-0.07748079210905401, -0.009915531452429675, 1.4974181642182016, 8431000000
-0.04335589566730638, -0.004416661312320814, 1.497412464229852, 8436000000
-0.044790704203152135, -0.001556199856767129, 1.496155952472571, 8441000000
-0.028318836691427374, -0.016544694355508694, 1.4969868605584766, 8448000000
-0.07067821884630077, -0.020401589294564704, 1.4967909153981231, 8453000000
-0.06705629322124712, -0.15294263835424762, 1.4970282956896215, 8458000000
-0.07271930408836266, 0.11040220588450936, 1.497496325514199, 8463000000
-0.039596939354997376, -0.03331084218188093, 1.4971544075333314, 8468000000
-0.03376960840923433, -0.1652840930546921, 1.4983714809493638, 8473000000
-0.05851649082135602, 0.12730141292398736, 1.4981987640622982, 8478000000
-0.07807851577527654, -0.16702992198602276, 1.4987311597675805, 8483000000
0.008502407537998483, 0.14871231349768127, 1.4992570055635575, 8488000000
-0.06694278714224956, -0.07690601096604263, 1.4990840400829721, 8493000000
-0.09301589563190833, -0.1914410424246811, 1.499578210834778, 8498000000
0.01089953108980006, 0.15978483015123882, 1.4993892752444868, 8503000000
-0.07044199176576621, -0.0370742985788656, 1.4988091290798817, 8508000000
-0.10289397558322422, -0.1607696336032319, 1.500119501600833, 8513000000
-0.007601478880181357, 0.17183585960911277, 1.499288965846286, 8518000000
-0.11239599677069786, -0.14963045398876307, 1.499273542190725, 8523000000
8.536481697272041, 0.02804279132362645, 1.4996674113662056, 8528000000
-0.14195137989885753, 0.027466288960015076, 1.4997494653407746, 8533000000
-0.006621392863908979, 0.01557109920755725, 1.5007244165914697, 8538000000
-0.1400516140344162, 0.03154531485439246, 1.501090112019019, 8543000000
-0.04295825337115195, 0.025572816147025765, 1.5009990350597477, 8548000000
-0.08710819092760314, 0.06291807380460632, 1.501671329823421, 8553000000
-0.046860989649439674, 0.020229646228186408, 1.5024314039759123, 8558000000
8.8222620038328, -0.008996532458064482, 1.502588531813543, 8563000000
-0.3054429244231496, 0.10515865542046074, 1.502835758802639, 8568000000
-0.09618310829269666, 0.06319359004262311, 1.5030064946999966, 8573000000
-0.05912588767622306, 0.1013408396831734, 1.5032916488298718, 8578000000
-0.03344407547039137, 0.12298525257060527, 1.503121798242912, 8583000000
-0.04030987214624358, 0.05158700746549841, 1.5026523905937426, 8588000000
-0.06231937717579325, 0.1015255627616649, 1.5027066256529034, 8593000000
6.495041147174872, 0.10831192614716803, 1.5019061838468957, 8598000000
-0.060055802065511435, 0.1315278474250379, 1.5011940322747506, 8603000000
-0.20057954055381094, 0.1415554615327288, 1.5004907476950926, 8608000000
-0.09490043896896588, 0.09891582272834343, 1.4992026143182065, 8613000000
-0.06500781282816845, 0.1402164920888902, 1.4982112205396247, 8618000000
-0.027818902641532504, 0.12273581444264473, 1.4975935755675318, 8623000000
-0.06193220729858523, 0.14029890893879912, 1.4970318983415711, 8630000000
-0.059359797682319006, 0.16046741635970918, 1.4964452016753773, 8635000000
-0.0955722428659648, 0.13383216036725304, 1.4962854722458956, 8640000000
-0.029978425944304155, 0.13624479896890945, 1.4957995382267808, 8645000000
-0.07616827550739538, 0.13778430184275406, 1.4961541532676932, 8650000000
-0.03289569025637198, 0.12286317334502306, 1.4963767916513575, 8655000000
-0.04983535681815295, 0.10817725983488036, 1.4964606486069922, 8661000000
-0.06738621520496857, 0.11015835643933729, 1.4970382732883072, 8666000000
-0.018976001242132622, 0.15345403032535815, 1.497436731765224, 8671000000
-0.04090297332951947, 0.1349316803096182, 1.4976325139503628, 8676000000
-0.042667745776634125, 0.14779260657636512, 1.4983179924371652, 8684000000
-0.04748260667606899, 0.14818972391430496, 1.4991635252789044, 8689000000
-0.04753769110894217, 0.17333181735084208, 1.4995714092161427, 8694000000
-0.027482778496898834, 0.08365181614682282, 1.499345293978129, 8699000000
-0.06428027637182049, 0.15932126728090495, 1.4997180408246222, 8704000000
-0.03616553563737993, 0.15407251437860459, 1.4997288455917208, 8709000000
-0.025213267060548116, 0.12340345777630747, 1.499841262933509, 8714000000
-0.061423121767174564, 0.13180093513807786, 1.4995694494629903, 8719000000
-0.08404903085568927, 0.15080843664153173, 1.4991949537932705, 8724000000
-0.03764996063502969, 0.13797370571112952, 1.4989522239838022, 8729000000
-0.037237378749164135, 0.13597504756702894, 1.498524706613865, 8734000000
-0.04691713497227061, 0.13179558319461537, 1.4986770527327988, 8739000000
-0.046817073347139124, 0.12312754909155885, 1.4980504730816375, 8744000000
-0.05475476299706511, 0.11367243273401065, 1.4978842872207607, 8749000000
-0.04269435522965326, 0.13290684606145495, 1.4979737235148003, 8754000000
-0.07285999743335629, 0.1446051565090622, 1.4976086532782902, 8759000000
-0.061717569799211364, 0.10204752850801418, 1.4973564812567288, 8764000000
-0.02951501047078773, 0.13482769786573198, 1.4974012036449633, 8769000000
-0.03994291114545637, 0.11581696098466784, 1.497541981654553, 8774000000
-0.05500267673217107, 0.10583475055543709, 1.4971177860366554, 8779000000
-0.053914073242496696, 0.13413378018601457, 1.497690782091721, 8784000000
-0.04059125466096513, 0.13390373178125894, 1.4976397019065975, 8789000000
-0.049075460107135226, 0.14700926424346109, 1.4976455574845444, 8794000000
-0.037207728680685566, 0.11049110244651111, 1.4984951457038382, 8799000000
-0.0260972230998939, 0.10352171122140376, 1.4981278342926172, 8804000000
-0.04476305997753035, 0.14426813351206694, 1.4983596881193932, 8809000000
-0.036001898266600635, 0.11994926111627748, 1.4986310541127477, 8814000000
-0.036289381091719, 0.13423228541341095, 1.4981571059229766, 8819000000
-0.05168928786954217, 0.12468780063003897, 1.4985594070605077, 8824000000
-0.0539301687444255, 0.13873728901982688, 1.498369470464162, 8829000000
-0.023424657323486576, 0.11416690571873374, 1.4984709255115451, 8834000000
-0.0666219052872922, 0.10947253960039587, 1.498255060835469, 8839000000
-0.0600994983389045, 0.10767122068627485, 1.498716757350407, 8844000000
-0.03233040397654889, 0.12040002400434933, 1.4982628822322244, 8849000000
-0.03902220986602217, 0.1325979470160679, 1.4983534040880793, 8854000000
-0.05342563706521523, 0.12008893989484407, 1.4982266487739846, 8859000000
-0.04748328282042864, 0.15545237506025475, 1.4983628500527795, 8864000000
-0.04947132719775012, 0.13894716988982528, 1.4982604298966908, 8869000000
-0.04105416293742584, 0.12400879956661731, 1.4982361046414532, 8874000000
-0.033867817129242916, 0.13123429187464078, 1.4976679761003995, 8879000000
-0.040130502578697776, 0.1295870184289056, 1.4978578032967176, 8884000000
-0.039137433858745754, 0.15955310965048125, 1.4981534473249931, 8889000000
-0.058373062025276715, 0.1248840863280977, 1.4976977303379633, 8894000000
-0.029336062168496966, 0.13208391041740802, 1.4978025876257088, 8899000000
-0.058562114664979785, 0.13861708089955907, 1.4978905743285416, 8904000000
-0.059916023009747514, 0.13129946982537788, 1.498022900791806, 8909000000
-0.05539251188890073, 0.1420146167453257, 1.4979241612506744, 8914000000
-0.04764929518956502, 0.13224867548070968, 1.4979881589796695, 8919000000
-0.058241681034706075, 0.14492422333298724, 1.4979983964764143, 8924000000
-0.043553360336763706, 0.11171992670861453, 1.4980365376417866, 8929000000
-0.030881635416469, 0.12370334868938983, 1.497830132784134, 8934000000
-0.05274137618896795, 0.11265028031623243, 1.498164822278722, 8939000000
-0.041538020160520245, 0.1413802667420758, 1.4981490686611318, 8944000000
-0.06700356935840102, 0.11147186084263336, 1.498067174586218, 8949000000
-0.03609685078113368, 0.1623402622391812, 1.4983258534951724, 8954000000
-0.0797273281823393, 0.14485263286465683, 1.4982438385729202, 8959000000
-0.05820386431177604, 0.11697037644295948, 1.4983696095376535, 8964000000
-0.06044805276455768, 0.1500917866806519, 1.4979923965430528, 8969000000
-0.034692955558592004, 0.16001748098533697, 1.498083610734341, 8974000000
-0.06803751249799571, 0.1667049349890064, 1.4978540553270419, 8979000000
-0.041237387188842914, 0.13972146953946626, 1.4977895271459136, 8984000000
-0.02745095764533026, 0.14941231314819345, 1.497913511752441, 8989000000
-0.02751001667197599, 0.12790519296788716, 1.4977885965963362, 8995000000
-0.06427149792862608, 0.12140452231184978, 1.4982106743302535, 9001000000
-0.04546710758414118, 0.149359487624428, 1.4982392065351549, 9006000000
-0.05401852539535066, 0.13457155517730002, 1.4980559709197396, 9011000000
-0.05339502453765491, 0.11579570312456812, 1.4982013241092031, 9016000000
-0.055963111089741, 0.13557307979843472, 1.4984566068866692, 9021000000
-0.024020087694162046, 0.13079846453987098, 1.4986462189863925, 9026000000
-0.02621123879829456, 0.13841130112418717, 1.4990896360630297, 9031000000
-0.062380169681443436, 0.1388523170919188, 1.4990568809387457, 9036000000
-0.043187985414707517, 0.10167955497436967, 1.498912209914984, 9041000000
-0.03521907179071891, 0.145512986695195, 1.4991752723603087, 9046000000
-0.034513489181306874, 0.09905504155204614, 1.4993019306594424, 9051000000
-0.08618231204700777, 0.14468814891837303, 1.499587823611321, 9056000000
-0.06984088800232909, 0.14378738006268846, 1.4991992679504835, 9061000000
-0.04171067387229893, 0.12841998310853742, 1.4991798861212466, 9067000000
-0.03350394603308525, 0.1287352687479137, 1.498886010038417, 9072000000
0.010240141200939303, 0.12845822150330197, 1.4990922576670376, 9077000000
-0.11454921355276314, 0.1362291591078438, 1.4988401043062363, 9082000000
-0.05372944267124327, 0.11678267921966912, 1.4987283377873721, 9087000000
0.0018368614812705186, 0.1305374245961739, 1.4985384871466907, 9092000000
-0.11773024337300184, 0.09292389179408578, 1.49873254134965, 9098000000
0.01803322183008693, 0.1475225770347394, 1.4985887120688937, 9103000000
-0.11762786774190707, 0.09135124043599802, 1.4980713099695775, 9108000000
-0.07522179719770762, 0.11951442559794903, 1.4984030603543894, 9113000000
0.05525032558043398, 0.21294960624106787, 1.4985363728821448, 9118000000
-0.17965496102703712, 0.05968302162804522, 1.4983333768732354, 9123000000
-0.0283235049371457, 0.14218015218901087, 1.49857557323255, 9128000000
0.03786796199219601, 0.21771864429279447, 1.49809635638757, 9133000000
-0.13404584590654514, 0.044804809340065255, 1.4983250878494168, 9138000000
0.06515939690213265, 0.23589807383030975, 1.49848653145042, 9143000000
-0.14752607436656745, 0.040552355009205905, 1.4984423098008164, 9148000000
-0.05916671932723913, 0.11911352903410194, 1.4983425240179866, 9154000000
0.04822821435132007, 0.19895580334223933, 1.4986231668646388, 9159000000
-0.18882796013183548, 0.015286485884255864, 1.4984966635169428, 9165000000
0.03753113739268023, 0.25067245571900226, 1.498365790403722, 9170000000
-0.045340264199528295, 0.12011372004856237, 1.498413290835674, 9175000000
-0.06388496667747212, 0.1442768350896454, 1.4983710201750189, 9180000000
-0.052176914552484924, 0.14190592009060013, 1.4989853353795777, 9185000000
-0.05550983228779324, 0.11679945245943796, 1.498818478507836, 9190000000
-0.06978943732405332, 0.13667240234512745, 1.4986743138208976, 9198000000
-0.04731444015793708, 0.13423057663711388, 1.4985782074251286, 9203000000
-0.12099734156893097, 0.026005898468805785, 1.4985175298272408, 9208000000
0.07886069118757989, 0.30829324980121187, 1.4986085034002798, 9213000000
-0.08205401741958193, 0.14659662121899764, 1.4986165361652373, 9218000000
-0.15467717997486294, 0.03451390866434166, 1.4985587019615816, 9223000000
0.11216201890963863, 0.29747703290353816, 1.4983284708197753, 9228000000
-0.06927802034100852, 0.13305784323472847, 1.4982982832283334, 9233000000
-0.2005718510380342, 0.03991645073499673, 1.4988160055063902, 9238000000
0.05835820295547922, 0.23801126723759455, 1.4984806540832136, 9243000000
-0.2357299054404709, -0.0095766621814691, 1.4983803754278884, 9248000000
0.10453476505107771, 0.24307926422530537, 1.4981639054286182, 9253000000
-0.04171754408984544, 0.1360446476696301, 1.49795836144429, 9258000000
-0.2874028782600746, -0.008308234871013415, 1.4983467601477496, 9263000000
0.05241757378580739, 0.18680060119134598, 1.4985658163820599, 9268000000
-0.18534975383822924, 0.09391304256695292, 1.4983254776863486, 9274000000
-0.034534534394323295, 0.17648715255239217, 1.4987718849423666, 9279000000
0.06521994899893051, 0.2279418466636186, 1.4979994464796906, 9284000000
-0.1633073901014508, 0.05131040321724331, 1.4983862895990425, 9289000000
0.0759497321491845, 0.22363158196319483, 1.498701863923562, 9294000000
-0.17986304606602663, 0.07819408099197751, 1.49850817262867, 9299000000
-0.055959917267935054, 0.1324682082052163, 1.4987969860511048, 9304000000
0.1042036046982873, 0.23745368531834213, 1.4988388642687096, 9309000000
-0.1692980345054228, 0.07249609966700858, 1.4985868132277644, 9314000000
-0.07691699654500837, 0.14539099900198113, 1.4989997777290684, 9319000000
0.04806845128997384, 0.21623866771882652, 1.4984798628778908, 9324000000
-0.15682907438480748, 0.10506657226665107, 1.498494371921688, 9329000000
0.07278894424501403, 0.21321892457471886, 1.4985674798738458, 9334000000
-0.18263623661051767, 0.11718135878509027, 1.4983810934332662, 9339000000
-0.10101731662825797, 0.11807178584138617, 1.4984367039690165, 9344000000
-0.04098622853210711, 0.13848715610876317, 1.4984999079036925, 9349000000
-0.06583195087934549, 0.15144628587449777, 1.4979315208419255, 9354000000
-0.09150633891927237, 0.14033689129831425, 1.4983679256670575, 9359000000
-0.025769159837747784, 0.11154790705278275, 1.4983686072257456, 9364000000
0.05391893236163297, 0.207863602010959, 1.4978884013992313, 9369000000
-0.14423050836967477, 0.12852670895852367, 1.4988037125774876, 9374000000
-0.024306706786426355, 0.15623383812469904, 1.4980741159859015, 9379000000
-0.013560046350815598, 0.1367227093538361, 1.4983472018355002, 9384000000
-0.04763537520945929, 0.1516432612530292, 1.497774779562357, 9389000000
-0.02028644627858056, 0.15799408316062644, 1.4978935493126282, 9394000000
-0.052901122924930835, 0.1450117674973796, 1.498926044749332, 9399000000
-0.032315756832552514, 0.13214221187447955, 1.4981500402007135, 9404000000
-0.07116369786724203, 0.14406865837692737, 1.4980987648232105, 9409000000
11.617784640557634, 0.10233908423145527, 1.4985645673196617, 9414000000
-0.13138646679852964, 0.2407332629648311, 1.4985227807271249, 9419000000
-0.10583808918106062, 0.19597333074966036, 1.4982547138393802, 9424000000
-0.04963486718060168, 0.20168341646204, 1.4986709070205615, 9429000000
-0.07468616483206231, 0.21767822408986442, 1.4986591916343852, 9434000000
-0.04158432294216575, 0.22034040235291114, 1.4986423874806307, 9439000000
-0.08571776184524013, 0.21108701714255126, 1.4987541629625545, 9444000000
6.926586407124374, 0.1929527794150829, 1.4989746619602697, 9449000000
-0.1407335593750533, 0.26247465255759606, 1.498633723568945, 9454000000
-0.061621317134175776, 0.2662529677790585, 1.4989560083069489, 9459000000
-0.08226926499248478, 0.27444217554999367, 1.498825158164517, 9464000000
-0.061387744637229, 0.21362660300760478, 1.4987551841129882, 9469000000
-0.07052535905475332, 0.254930813922025, 1.4986390632760296, 9475000000
5.451954976539206, 0.25478801104884624, 1.4988936613142878, 9481000000
-0.12250906219457394, 0.3134619516454453, 1.4987304899969989, 9486000000
-0.07571210967631023, 0.3170009587070548, 1.4988035068538395, 9491000000
-0.06269194004263956, 0.29915396949340217, 1.4985519131247251, 9496000000
-0.03585332365932892, 0.2847717144518387, 1.4983508337364857, 9501000000
-0.0184801991623077, 0.3236842234356409, 1.4982153601311143, 9506000000
-0.018201372609497217, 0.31126331161817555, 1.4984134142299805, 9511000000
-0.029866763535461836, 0.31206126829665837, 1.498194366835858, 9516000000
-0.06033602212614847, 0.3159958181551506, 1.4984487836972475, 9521000000
-0.04906994603120734, 0.31458542692533725, 1.4981459624890554, 9526000000
-0.01805939412136892, 0.3201098919677331, 1.498059220753929, 9531000000
-0.02484277108264292, 0.3049202546585743, 1.498157865560945, 9536000000
-0.06161444015271451, 0.30830671499091483, 1.4981309741706494, 9541000000
-0.09096855295123128, 0.27872585627622953, 1.4980268683912064, 9546000000
-0.032353206409970324, 0.34058445669249515, 1.4981175310371562, 9551000000
-0.06802122013972359, 0.3232428686788387, 1.497763518571036, 9556000000
-0.049239484613834185, 0.31571680828001325, 1.4979047578939735, 9561000000
-0.013472950866563749, 0.3068761691760466, 1.4980895407282455, 9566000000
-0.02598466905636706, 0.3150052784144931, 1.4978786651212694, 9571000000
-0.03998077082970547, 0.342162201728697, 1.4982917231549728, 9576000000
-0.05128503070720434, 0.2930637042218644, 1.4980262143406102, 9581000000
-0.029008712072118477, 0.30091300661863524, 1.4982768454193582, 9586000000
-0.031049071188274522, 0.3061052833488656, 1.497997576733635, 9591000000
-0.04939691576348642, 0.3160845065635731, 1.4983719844634384, 9596000000
-0.01801068669392637, 0.31038239344426505, 1.4978977904780468, 9601000000
-0.03535058585339387, 0.30902033394378625, 1.4982813213462813, 9606000000
-0.02040968197492049, 0.30160436135509533, 1.4981948139458863, 9611000000
-0.02018192617225844, 0.31905323310747635, 1.4981965559737813, 9616000000
-0.0372871598925248, 0.33607015155238323, 1.4978773702846482, 9621000000
-0.02902034045312632, 0.33123342217245405, 1.498387180874712, 9626000000
-0.02671069849245298, 0.32775279401017954, 1.498068385646029, 9631000000
-0.04954223920445931, 0.3046937149570812, 1.4981370413021882, 9636000000
0.005878264477022808, 0.32913920420753784, 1.4984964608585942, 9641000000
-0.02660866931395067, 0.30339827540980246, 1.4981230085455037, 9646000000
-0.0549556833074256, 0.3117824837825623, 1.4983050351830194, 9652000000
-0.029284947551692236, 0.3120444099824272, 1.4979784172440784, 9657000000
-0.040535675886887355, 0.34602986993310614, 1.4974134317445502, 9662000000
0.0001556185104480655, 0.32105855969473235, 1.4978960100766587, 9667000000
-0.03563755034059402, 0.32452889206842567, 1.4977356889895637, 9672000000
-0.006328082004445547, 0.33808928031326163, 1.4978466815859635, 9677000000
-0.04776723284463108, 0.3535104268584931, 1.497810430430694, 9682000000
-0.00940932837750858, 0.32932727415341945, 1.498113144686176, 9687000000
-0.011392231712787495, 0.3142829270513525, 1.4978617985338305, 9692000000
-0.0067606620334959774, 0.3062870531125867, 1.4977410157520066, 9697000000
-0.02884221763280745, 0.2982059072593592, 1.4981107745535358, 9702000000
-0.022186382201365224, 0.3206892632050904, 1.4979027601380186, 9707000000
-0.05228371652153374, 0.33138319708855785, 1.4980674701021568, 9712000000
-0.03277008745676813, 0.3307745775078531, 1.497520166274444, 9717000000
-0.02683939670575866, 0.3308969642472779, 1.4980613930249398, 9722000000
-0.015355993260639609, 0.27485714307420694, 1.4980830463099482, 9727000000
-0.009006656327965757, 0.32728709692591457, 1.4976424101142665, 9732000000
-0.01476493428789117, 0.34486163762532457, 1.497765693585692, 9737000000
-0.028090128133660384, 0.3458163961265316, 1.4981136376315531, 9742000000
-0.03182545787087733, 0.3386995605483613, 1.4978785167439175, 9747000000
-0.026207820549536062, 0.35105676936895275, 1.4978105773941917, 9752000000
-0.016610875540372872, 0.31452135808891396, 1.4979221869126944, 9757000000
-0.015625736601597162, 0.32792484321614584, 1.4979899089417963, 9762000000
-0.029638355736549795, 0.3390059184734875, 1.4976712932757004, 9767000000
-0.017691599655144795, 0.32732385124741, 1.4978407845977595, 9772000000
-0.031385549214631644, 0.29997572599580086, 1.497483181499023, 9777000000
-0.02081573792060699, 0.3248367280455402, 1.4978787098009647, 9782000000
-0.036814861362571526, 0.31682261458730315, 1.4976078961203894, 9787000000
-0.004576415484860357, 0.340287027045259, 1.498228298677542, 9792000000
-0.031460969712912915, 0.3198572731088914, 1.4982198951731407, 9797000000
-0.014449481024965665, 0.329493476093945, 1.4976694509758453, 9802000000
-0.01183131358274666, 0.31548723606720663, 1.4975447908404658, 9807000000
0.015193802117239533, 0.327596433782458, 1.4975615201692576, 9812000000
0.017343943714309615, 0.33771408765443545, 1.4976543505952424, 9817000000
0.005119599581916625, 0.31239997432238115, 1.4975758432513986, 9822000000
-0.016770325810281556, 0.32062402853938704, 1.4979091541753147, 9827000000
-0.019015104629727483, 0.3341595050807534, 1.497761343598375, 9832000000
0.009419132041273804, 0.3518069882403816, 1.4976099971488464, 9837000000
-0.004034829310775569, 0.32937547300135794, 1.4978665425563817, 9842000000
0.004006625876750512, 0.32836457949280123, 1.497848889339531, 9847000000
0.0003790259907081473, 0.3472918205491764, 1.4978310312211016, 9852000000
-0.01754541593707771, 0.309881157060094, 1.4978114645206673, 9857000000
0.0015806710944758513, 0.37277118808114457, 1.498024082781729, 9863000000
0.008281532015250538, 0.32511544282127114, 1.4979031358072072, 9868000000
-0.02287641386015924, 0.3521844231110363, 1.497809043677641, 9873000000
-0.015278409382950714, 0.3258633100975105, 1.4977563533265483, 9878000000
0.0036082933939366336, 0.37109503016234374, 1.4980909587204454, 9883000000
-0.025036373808532613, 0.3422309315351472, 1.49799953375307, 9888000000
0.007150971814771336, 0.3275450024485191, 1.497585440777754, 9893000000
-0.033758054307136715, 0.32074393221851183, 1.4981086180342233, 9898000000
0.01206143098046457, 0.3339212617361436, 1.4979925583607245, 9903000000
0.01732115801509241, 0.31975725724087556, 1.4977076213866736, 9908000000
-0.007836175647280496, 0.32546207405676414, 1.4981408357194996, 9913000000
-0.012805621294330445, 0.3364966869132465, 1.4980585650387916, 9918000000
-0.038588706099460815, 0.32338740799213395, 1.4979040945690822, 9923000000
0.016587487786975757, 0.3197929417026382, 1.4977808608929366, 9928000000
-0.01610059646446986, 0.34382793827355246, 1.4977464061451675, 9933000000
0.0017257478454304354, 0.3583619125162185, 1.49814933649551, 9939000000
-0.01580360479379878, 0.32687604252379276, 1.4975399830279634, 9944000000
-0.005448943261938739, 0.3603755257552578, 1.4973818609054683, 9949000000
0.014670060682596879, 0.3424678855639, 1.4976489508662214, 9954000000
-0.0001894203125284346, 0.3723645346450364, 1.4976863688410773, 9959000000
-0.0067059944185830864, 0.3071657501876533, 1.4978395206396922, 9964000000
-0.0321978951431022, 0.34344783516443633, 1.4976008420963633, 9969000000
0.010824649107867616, 0.34360475209435554, 1.498131329262759, 9974000000
-0.04211099970023602, 0.294357615501198, 1.4978204984986567, 9979000000
0.0015240613269083833, 0.35337183069197, 1.497715021795235, 9984000000
-0.012467917697244375, 0.35303684664766155, 1.4977670293329635, 9989000000
0.011135634608435573, 0.32964734175845256, 1.4973686137856088, 9994000000
0.01865594964984909, 0.3534999649133919, 1.4969690080000988, 9999000000
0.024047131322908567, 0.33989320895908887, 1.4973781157795434, 10004000000
0.01426206836962714, 0.3417889769001484, 1.4977006255950365, 10009000000
9.942153138982942e-05, 0.28020392473103295, 1.4976973696463405, 10014000000
0.021822116694988264, 0.2996965868866939, 1.497627866027373, 10019000000
0.030393429845123755, 0.30521703849017745, 1.4984082595375818, 10024000000
0.005788785518163539, 0.3032558666272097, 1.498503798811994, 10029000000
-0.028940425102513545, 0.3277045210483833, 1.4983721669821322, 10034000000
0.003116397478322269, 0.3218669513831009, 1.4987251575707439, 10039000000
0.010042771577454741, 0.3511551562863009, 1.4990614534551145, 10044000000
0.0005033777535893309, 0.32842275508906527, 1.4995237922609934, 10049000000
-0.00044166301552991515, 0.3081224792681881, 1.499812544490149, 10054000000
-0.012517229907888467, 0.33718676002098963, 1.4997409819600764, 10059000000
-0.041476375827973505, 0.3383970525982532, 1.4998115050159475, 10064000000
0.01794724243819546, 0.29824476575077274, 1.4996026667273954, 10069000000
-0.010698519206014202, 0.31711131239736773, 1.4993689525826945, 10074000000
-0.017563173425869737, 0.34811481823532203, 1.4995493422639354, 10079000000
-0.016212577861055365, 0.3283242906993525, 1.4993328210769301, 10084000000
0.009904674935571376, 0.3143991706895565, 1.4990600406862562, 10089000000
-0.013890662317424855, 0.30314159601754753, 1.4986921703582121, 10094000000
-0.03277767808833273, 0.3265538522311647, 1.498996992358092, 10100000000
-0.0167436022171619, 0.3074961276899551, 1.4983820182420764, 10105000000
0.0035293062595474177, 0.32979756770064433, 1.4985154572217267, 10110000000
-0.028632275804989, 0.3132073492227909, 1.4981794491840301, 10115000000
-0.023558279078393286, 0.35662274809519967, 1.4983501865493114, 10120000000
-0.01012083278656367, 0.31042081051299497, 1.4980060317882344, 10125000000
-0.010517057175796068, 0.33500151855553834, 1.498187031183319, 10130000000
-0.0075588832507263734, 0.34184263781308094, 1.4984886700126305, 10135000000
-0.02376346298030954, 0.34308997719823275, 1.4979329255229499, 10140000000
0.0016035571983764284, 0.3182520731309514, 1.498113829157818, 10145000000
-0.019015174142559294, 0.3491045460136945, 1.497834597901916, 10150000000
0.005120344432102423, 0.3338782067399514, 1.4979099166967653, 10155000000
0.005505758923876142, 0.3613891730594212, 1.498022736244514, 10160000000
0.0034197625412568395, 0.3575801148940616, 1.4982212832908934, 10165000000
0.01278824282944389, 0.3328453815707541, 1.4979784894873103, 10170000000
-0.015656615793025557, 0.35766421102356666, 1.4981083477371464, 10175000000
-0.0037981650672915847, 0.36040518716765535, 1.4983494917996727, 10180000000
-0.028544537816373894, 0.34318579165944013, 1.4984179209438517, 10185000000
-0.021692288579722142, 0.3411021533893043, 1.4982063672309027, 10190000000
-0.007598574031278465, 0.3393219012567577, 1.4979660964301642, 10195000000
-0.005669646264621251, 0.3394859592319471, 1.49814781371344, 10200000000
0.03683637268342142, 0.3563491784019439, 1.4981564870806396, 10205000000
-0.0033739052066352176, 0.3168938249512962, 1.4978635563455907, 10210000000
-0.016483967095577055, 0.36849212964452194, 1.4980576587046968, 10215000000
0.0044407824931813515, 0.3451275928870724, 1.4979236690469269, 10220000000
-0.005192719678837696, 0.35560874668579684, 1.4981690007706379, 10225000000
-0.006031797689138723, 0.32519561069503383, 1.4980139646898152, 10230000000
-0.02381627721590608, 0.34974230296862335, 1.4985078442117734, 10237000000
-0.002499224072902193, 0.37088331238961303, 1.4981921317318208, 10242000000
-0.005605755674703324, 0.3343568397831826, 1.4979812048968733, 10248000000
0.004701368492963065, 0.3467104824195403, 1.498348342046847, 10253000000
-0.0055746053675655586, 0.34391457149916893, 1.4981511588138254, 10258000000
0.005987928003587943, 0.37372772397433474, 1.4982267445545572, 10263000000
-0.006232036521859306, 0.34225912259316754, 1.498220869834731, 10268000000
-0.008075537802862475, 0.3403468973179829, 1.4979917438433528, 10273000000
0.007237844362178747, 0.34713477165797657, 1.4980450879211298, 10278000000
-0.02511699583569452, 0.3394854342954448, 1.4976018491736598, 10283000000
0.004903883771276633, 0.35326824044774513, 1.4983025558791052, 10288000000
0.007424940373124987, 0.38527245272015986, 1.4977508214024098, 10293000000
5.747539829237734, 0.3214210877889433, 1.498030193143549, 10298000000
-0.09786189736254473, 0.4195418197784901, 1.498032398626887, 10303000000
-0.07741960524849745, 0.39646081234952646, 1.4982844352802653, 10308000000
-0.02365969980065867, 0.38775043526461417, 1.4985128218404569, 10313000000
-0.07878212408613616, 0.25449398668679535, 1.4984947211862445, 10320000000
-0.03922301752665769, 0.30512290683799087, 1.5000936876669366, 10325000000
4.882069213153184, 0.5732065253226959, 1.5037646578569406, 10332000000
-0.3610491329634897, 0.6326150367490276, 1.5100719811597745, 10337000000
-0.31162982353057095, 0.610247321421652, 1.5171011174907636, 10342000000
-0.19834956568881998, 0.5130398699159606, 1.526554541320157, 10347000000
-0.12440071454946475, 0.48850077763609806, 1.5384322683550273, 10352000000
-0.08348078794776212, 0.49457997827839595, 1.5510511839917662, 10357000000
5.295748347982813, 0.41252107660370285, 1.5631463969047743, 10362000000
1.193233229491801, 0.4747686002495839, 1.574607721589457, 10367000000
-0.07104008003938421, 0.4994736150338481, 1.5858748528081723, 10372000000
0.01697256013799409, 0.5346591559597703, 1.594011192444089, 10377000000
0.0891641048320909, 0.5233607041219746, 1.5997248735047502, 10382000000
0.12131191452169207, 0.5327231720272492, 1.6039375996753606, 10387000000
0.0839555933532534, 0.5280155725811178, 1.6051839763843911, 10392000000
0.08908892287752156, 0.534594422193587, 1.6040567307875222, 10397000000
0.11199366559976023, 0.5067791242300906, 1.600724821786118, 10402000000
0.10028648133528434, 0.5361213553159127, 1.595387525578516, 10407000000
0.06615544653732447, 0.541003547415115, 1.588258725163908, 10412000000
0.02986405868509992, 0.5098432027681, 1.5808718223923832, 10417000000
0.05911976073604161, 0.501456773484569, 1.573314479673535, 10422000000
-0.014436841222158023, 0.5393356574379429, 1.5637922745746446, 10427000000
-0.023871239902001243, 0.532638670960852, 1.5580775873877712, 10432000000
-0.08257569484660707, 0.5317338567724134, 1.5520171114579557, 10437000000
-0.04740679700163949, 0.5197845850389013, 1.5472486985313123, 10442000000
-0.06361014126181412, 0.48386848831056295, 1.5446803046291748, 10447000000
-0.08300031485018244, 0.52358169843242, 1.5420890850246316, 10453000000
-0.05272706983527896, 0.50356320511386, 1.542708824918921, 10458000000
-0.0700855559076389, 0.5235207634493069, 1.5444888979101774, 10464000000
-0.03557431552537613, 0.4954939960336097, 1.5474829093176736, 10469000000
-0.04074056537219416, 0.5014404627655614, 1.551654853071026, 10474000000
-0.028047629559720212, 0.5217062388993061, 1.555363291188822, 10479000000
-0.04358127464967426, 0.4950882402228432, 1.5605939579058294, 10484000000
-0.04033875554886247, 0.5188464938879306, 1.5651745850196508, 10489000000
0.0031012433597440224, 0.5011641343102885, 1.5691431062100607, 10494000000
0.013601428809393615, 0.5293903753572649, 1.5729607257187053, 10499000000
0.040968338571360854, 0.5302055696951192, 1.576212998012884, 10505000000
-0.007891346307130676, 0.5427695541665124, 1.5780289249986756, 10510000000
0.05919247536533383, 0.49672098961957073, 1.5789730260314674, 10515000000
0.031894387262199564, 0.4849048890370514, 1.5788194309124162, 10520000000
0.03243397201598551, 0.5388940889617672, 1.5780934249302099, 10525000000
0.03984099229362076, 0.4939912631192217, 1.5765754160957142, 10530000000
0.026845111043611525, 0.49896323966085465, 1.5743928692400544, 10535000000
0.01982811618546464, 0.5234530397709262, 1.571786421351656, 10540000000
0.018888010085872552, 0.506266373785253, 1.5692242559870562, 10545000000
0.011483287682229767, 0.4975531948105508, 1.5668031018381805, 10550000000
0.015434718573842952, 0.5093317733380633, 1.5642433271125435, 10555000000
-0.0034026196960618513, 0.520175496844425, 1.5619646110617396, 10560000000
-0.015315976898946272, 0.5261692205721413, 1.5598003390869637, 10565000000
-0.029419853530654648, 0.5432200001985827, 1.5585598020790277, 10570000000
-0.00025260342382558976, 0.5187873257411774, 1.5580655811962492, 10575000000
-0.014769452146232195, 0.5269531194642293, 1.557384059967087, 10580000000
-0.047296352135698945, 0.5318944451521955, 1.5576002322042997, 10585000000
-0.03692822755851805, 0.5082460703539252, 1.5583942267023574, 10590000000
-0.040147591363334234, 0.5341730290128925, 1.5597419213410266, 10595000000
-0.018619534329085658, 0.5217251041921562, 1.560528959367726, 10600000000
0.02757794292024688, 0.5025935907894412, 1.562249856712919, 10605000000
-0.021860915231600178, 0.5173332734847811, 1.5640322337071981, 10611000000
-0.0004962193686673753, 0.49133262102266617, 1.565757742797705, 10616000000
-0.008555879294314927, 0.5085155160115615, 1.5664178955948247, 10621000000
-0.021153268092219794, 0.4684407650275212, 1.5681008043895595, 10626000000
0.03511923505899756, 0.48736544072527344, 1.5684826341247164, 10631000000
-0.0018346151438002872, 0.5158424224197801, 1.5691636237190625, 10636000000
0.00437267831561237, 0.5149468501057388, 1.5689841658149837, 10641000000
0.011668286254733784, 0.47776962559062347, 1.5689096679062724, 10646000000
0.030505900251932817, 0.49282432883655974, 1.568693587350244, 10651000000
-0.0036945082942268642, 0.5034459392485954, 1.5682683606728416, 10656000000
0.0039139565433432034, 0.5004173767256515, 1.566948255835733, 10662000000
0.01797644142223187, 0.530102675992014, 1.565998166515733, 10667000000
0.01408951565269793, 0.5037051128061576, 1.5646333252597262, 10673000000
0.018532108629692887, 0.49617731812867333, 1.5643925571845574, 10678000000
0.0030156511379058823, 0.524582447020784, 1.5628044744574021, 10683000000
-0.031432580641059846, 0.500247780260527, 1.5621838486756816, 10688000000
-0.01629666663262816, 0.5106007269178277, 1.5613398173062865, 10693000000
-0.03475697066616895, 0.49319965573338836, 1.5610530973297152, 10698000000
-0.01623569061368185, 0.4927785383135917, 1.560436877879072, 10703000000
-0.020130023462955546, 0.4890627718485708, 1.5603177265055446, 10708000000
-0.02969133923190461, 0.4982713210631445, 1.5598078678458127, 10713000000
0.023542826313636904, 0.4863045277787797, 1.559877713333358, 10718000000
-0.008765309685063368, 0.5053757277497136, 1.55975123668118, 10723000000
-0.032641465294365006, 0.5525587616646774, 1.5603390911120631, 10728000000
-0.0263355650989332, 0.5058999642393185, 1.5603067795829777, 10733000000
-0.017532072424543743, 0.4952275187886582, 1.56108160264744, 10738000000
-0.00313570451367131, 0.4939558996876856, 1.561516895494225, 10743000000
-0.013531101104689072, 0.5100900546575806, 1.5624999371487636, 10748000000
0.0005548648994447587, 0.5122824089511058, 1.5632389577647063, 10753000000
0.00428308918382962, 0.4894788419288821, 1.5644065115825612, 10758000000
-0.022132388402713223, 0.5317555372014924, 1.5653741223459294, 10763000000
-0.01349658192677887, 0.5381260043676159, 1.5656658631089537, 10768000000
-0.03173170647339958, 0.5424792006474117, 1.5666314863398456, 10773000000
-0.02584708276121619, 0.5344403360234259, 1.567013219438371, 10778000000
0.003673607187956083, 0.4902964225333036, 1.5675650838732202, 10783000000
-0.019921990816600274, 0.5011736263111193, 1.5681004787903932, 10788000000
0.00022307655151408636, 0.5316711259181408, 1.567985549694071, 10793000000
-0.011867496997711356, 0.5363361986314803, 1.5676285513415325, 10798000000
0.015758122281951926, 0.4964148656742394, 1.5674890402886394, 10803000000
-0.04622241599138961, 0.5188966183249338, 1.5672392486218103, 10808000000
0.002597553931734727, 0.5068960200509857, 1.566595186055745, 10813000000
0.007755172788247562, 0.4877980583584207, 1.5662545802074272, 10818000000
0.03647110281840939, 0.5023728103855151, 1.5662827543292797, 10855000000
0.0009859587254229876, 0.5064992303159288, 1.5636393449747013, 10860000000
-0.006827306578383617, 0.5290405940435988, 1.5636692126449856, 10865000000
0.007043121844693086, 0.558618408559892, 1.5641564229706881, 10870000000
-0.016984234599982224, 0.5107559445161863, 1.5645370285252758, 10875000000
-0.0453380105761457, 0.5356464224138918, 1.5643185283380372, 10880000000
-0.006427098474974701, 0.5247656064572676, 1.5651904037481081, 10885000000
0.009298184300100114, 0.5259489070516553, 1.5655110081452694, 10890000000
-0.007343371269603889, 0.5078889222373777, 1.5661385193145243, 10895000000
-0.007932385487222717, 0.5063240551616182, 1.5664558084365343, 10900000000
0.013852633809342126, 0.4894876515768204, 1.5666339474912465, 10905000000
-0.02941042826366885, 0.522302110115792, 1.5665718949929464, 10910000000
0.008495074226766864, 0.5074341290652754, 1.5669243336516903, 10915000000
0.003325503889801835, 0.5336207346592867, 1.567137114419335, 10920000000
-0.02489757341624542, 0.5124735216576113, 1.567330181529301, 10925000000
-0.006771210585536792, 0.5148484268846631, 1.5675291103303424, 10930000000
-0.026336805191984107, 0.5630214584637614, 1.5667581334128826, 10935000000
-0.03713220912963498, 0.5011528176854655, 1.5667362188083749, 10940000000
-0.020918963862445808, 0.5090177812572586, 1.5664675250319553, 10945000000
-0.026507301398812452, 0.522480599370092, 1.5662822238984941, 10950000000
-0.004624410392620603, 0.5251719210324535, 1.5659339017586023, 10955000000
-0.016776608889533664, 0.4912623187225502, 1.565714479597273, 10960000000
-0.042232117074036825, 0.5444409763048754, 1.5658355499064527, 10965000000
-0.03537300765254407, 0.510099907197414, 1.5655268665337643, 10970000000
-0.03410998408623378, 0.5199257743983922, 1.565491690520631, 10975000000
-0.017323192633335822, 0.5336669004052649, 1.565717886022054, 10980000000
-0.03417596145160275, 0.511278947967256, 1.56535434112898, 10985000000
-0.00684917825523506, 0.5473163022232888, 1.5654417292360692, 10990000000
-0.037597156671248494, 0.515807948484681, 1.5655333971818155, 10995000000
-0.01818592616472903, 0.5002756283907079, 1.5655844706982078, 11000000000
-0.006952499996707837, 0.49795822737384204, 1.565569267519944, 11005000000
-0.020027824013810567, 0.5214076566082327, 1.5657446142135123, 11010000000
-0.06257741776805023, 0.5454170469689146, 1.5654679791902804, 11015000000
-0.024845466176294653, 0.5161541586235701, 1.565799374842225, 11020000000
-0.04019625661066083, 0.5086926985597453, 1.5658198085502024, 11025000000
-0.005314276742117291, 0.5054519917584446, 1.5666398063870224, 11030000000
-0.03776173951626072, 0.5239730143196019, 1.567179026298974, 11035000000
-0.04060830302166178, 0.4649860149555431, 1.5675503737000642, 11040000000
-0.03742908214570796, 0.5158340780738606, 1.568015268123019, 11047000000
-0.03411406344009381, 0.5279074356325596, 1.5682310514739906, 11052000000
-0.023617728571996146, 0.5305080621114394, 1.5686291851796508, 11057000000
0.009748514417940397, 0.4864579540798705, 1.5685534797860015, 11062000000
-0.03648335193327634, 0.4956325942818276, 1.569107406611243, 11067000000
-0.011612747009449201, 0.48732375174312537, 1.569554660228283, 11072000000
-0.00832838463150257, 0.46209466105460506, 1.569068274899029, 11078000000
-0.04033960650381031, 0.5309259261050956, 1.5687668579256935, 11083000000
-0.022893119549881703, 0.48371657281588387, 1.5689259338635675, 11088000000
0.018538713478966868, 0.5033483974681839, 1.5685163423847044, 11093000000
-0.032420822616705564, 0.49708713813011784, 1.5684717180918308, 11098000000
-0.018647377625108902, 0.5213227994161453, 1.5679933974578004, 11103000000
-0.009960448735275493, 0.5179315673546787, 1.5675537737364567, 11108000000
-0.06057729996540752, 0.5406635002302184, 1.5667440161567856, 11113000000
-0.035351092607590166, 0.5305916023084368, 1.5663985257223767, 11118000000
-0.04229281366967063, 0.5344249987411752, 1.5662216629920338, 11123000000
-0.0358190783013351, 0.5312544853401652, 1.565559222461727, 11128000000
-0.024389963241513886, 0.5309848541130158, 1.5651415187043205, 11133000000
-0.02694337256569082, 0.511174577555368, 1.5650421512837986, 11138000000
-0.02159005118669807, 0.49332494265980165, 1.5650947657252186, 11143000000
-0.0537434300464935, 0.5150010456112214, 1.565429574661255, 11148000000
-0.034820639401320255, 0.519294723621743, 1.5654193253080022, 11153000000
-0.051885616034941434, 0.5343327198465155, 1.5649163691819779, 11158000000
-0.04484864658255094, 0.5335951435022092, 1.565499777614239, 11163000000
-0.02720119365307087, 0.5089475620557251, 1.5656144908155958, 11168000000
-0.08615395370703371, 0.5495493831815483, 1.565762264843687, 11173000000
-0.06135850873487286, 0.5024030696901014, 1.5661107116904507, 11178000000
-0.05421428941444782, 0.5426396124991136, 1.566268053628841, 11185000000
-0.018838296025646455, 0.5172723730673779, 1.566588217993923, 11190000000
-0.042621976111701584, 0.5574784136845027, 1.5672743787035208, 11195000000
-0.040535521447134217, 0.5272180420713686, 1.5669790848939065, 11200000000
-0.058969413675725876, 0.5212270890834382, 1.5670029250847246, 11205000000
-0.05075696716493741, 0.5401888481265743, 1.567293307160523, 11210000000
7.037713396738354, 0.49611131541269204, 1.5673978605710726, 11216000000
-0.08232227647121242, 0.5286121083933347, 1.567727412571006, 11221000000
0.28181816014636346, 0.4296026586673861, 1.5641671284818284, 11226000000
-0.14127655460554545, 0.44226156205966843, 1.5597722407412862, 11232000000
-0.15251649618867452, 0.6554118164198083, 1.5551047945203316, 11237000000
-0.07088471748922759, 0.6073021618191017, 1.5497211389505146, 11242000000
4.968962955667498, 0.5953281431198947, 1.5443736590423844, 11248000000
-0.20017363040701427, 0.6159363917410428, 1.5413384643567423, 11253000000
-0.10539631154940707, 0.6426284364694312, 1.5375875493673743, 11258000000
-0.06099556341793165, 0.651642838227145, 1.5338017026676456, 11263000000
-0.0639947930166762, 0.6059614810887815, 1.5301259908344023, 11268000000
-0.1365944305937287, 0.6566012110280364, 1.52679102846038, 11273000000
-0.22450909176618755, 0.6034966649922406, 1.524086174480192, 11278000000
6.725310412010005, 0.5743113292870663, 1.5241306227668534, 11283000000
0.06870700676276041, 0.7606703725392276, 1.5224039388263746, 11288000000
-0.30570751383511213, 0.6153206918365476, 1.5204201305619678, 11293000000
-0.34597342255505315, 0.6940498162847714, 1.5201426440529855, 11298000000
0.39488749948645224, 0.6875310908822825, 1.5190752565160197, 11303000000
-0.36700905372876425, 0.5864447994954917, 1.5178816033672422, 11308000000
-0.28309392598360383, 0.7146243454516561, 1.5190861785550491, 11313000000
0.6085832098932625, 0.6881709875196681, 1.5185317155711378, 11318000000
-0.5597819716988823, 0.61725687914623, 1.516613409191763, 11323000000
-0.2326471814701499, 0.7238301800065504, 1.517687012417596, 11328000000
0.0586739582511511, 0.6420280993040481, 1.519901163167903, 11333000000
-0.2832120540040863, 0.6705589571128097, 1.5236666604475915, 11338000000
0.5202151780893958, 0.6929939075322393, 1.5259436656350638, 11343000000
-0.25306569726641537, 0.6199850466160997, 1.5266851432279847, 11348000000
-0.4222427710034756, 0.677412993843935, 1.5277794152312405, 11353000000
0.26318525501820417, 0.6792343736764658, 1.528891127293151, 11358000000
-0.17324179520474156, 0.5524837509372846, 1.527041261088027, 11363000000
-0.19826784351998275, 0.7821533333330204, 1.5276159954726742, 11368000000
0.2247681336278419, 0.7920577025481783, 1.5278152685698598, 11373000000
-0.3405976634472793, 0.5057842692115592, 1.5270189849345832, 11378000000
-0.15493830522454072, 0.7994951809578622, 1.5278558711723398, 11383000000
0.4011805997523957, 0.7256465081567882, 1.527254324741426, 11388000000
-0.2925961391874621, 0.7191980906383272, 1.5256653465515604, 11398000000
0.3985826484865946, 0.7321355015958295, 1.5243980038341667, 11403000000
0.06668862830707575, 0.6724119440803548, 1.522505778510039, 11408000000
-0.3840322050846152, 0.6420323337204651, 1.5210544449197767, 11413000000
0.4211252385561457, 0.717359241254159, 1.520576062245307, 11418000000
-0.08903441024160591, 0.6962452857901362, 1.5164651526495603, 11424000000
-0.112466547155792, 0.7342213883898475, 1.5148780523054273, 11429000000
0.1347238056089757, 0.6327702116114006, 1.512652528915649, 11435000000
-0.012664516319532318, 0.652517401992061, 1.509050182325585, 11440000000
-0.1505414562452972, 0.6739154335138462, 1.5077175941722238, 11445000000
0.10385636189770889, 0.6613023573441628, 1.5053360017274808, 11450000000
-0.05735483404947462, 0.661372627917816, 1.5034384751338132, 11455000000
-0.13815152217930568, 0.6820131914614088, 1.50172165825953, 11461000000
0.05199111037524823, 0.667502931842894, 1.4995528161129492, 11466000000
-0.05256111041287556, 0.6880598411735737, 1.4978541109369796, 11471000000
-0.1817479832816785, 0.6451438067822896, 1.4963855399844803, 11476000000
0.055240554224552846, 0.709562578002089, 1.4952262660116413, 11482000000
-0.07507982610807111, 0.6712408424027744, 1.4939023551942827, 11487000000
-0.19564075326428024, 0.6790841928174743, 1.4930571668365404, 11492000000
0.054541120225966126, 0.6736003293753164, 1.4921273879609034, 11497000000
-0.08994066929453495, 0.6404565037094515, 1.4910053354864683, 11502000000
-0.1805094012467785, 0.6592626950167981, 1.4900234546928592, 11507000000
0.041298613874041594, 0.6672419248483014, 1.4891746412554532, 11512000000
-0.05011880574321523, 0.6827413245569597, 1.488742133407164, 11517000000
-0.17134064914550448, 0.608731128879762, 1.487624997546586, 11522000000
0.05050573495566786, 0.6900096604558401, 1.486772988001977, 11527000000
-0.06828899004453816, 0.6868047064757647, 1.4864788915741587, 11532000000
-0.16997839899813283, 0.5861876173171093, 1.4855558878608845, 11537000000
0.04214262724372404, 0.719789006804094, 1.4850896832391203, 11542000000
-0.04395660739253114, 0.667691001351698, 1.4842208789260323, 11547000000
-0.11343457599141703, 0.5872130260127993, 1.4838453369925542, 11552000000
-0.0028335185080868523, 0.7532056112866703, 1.4831956519721103, 11557000000
-0.041808909014671096, 0.6713539804846137, 1.4828746172422114, 11562000000
-0.14059198342099952, 0.6060053620842067, 1.4821942005424393, 11567000000
0.01734552936478575, 0.7245495226057194, 1.482040873052808, 11572000000
-0.034326407675093644, 0.6067895753979965, 1.4813097392619676, 11577000000
-0.08910563832021647, 0.7154431280143647, 1.4811185195895444, 11582000000
0.05853734572602415, 0.6757049700339658, 1.481026753717085, 11587000000
-0.11984480279995144, 0.6254217012107025, 1.4805381206492694, 11592000000
-0.09647616895614264, 0.7511982054731741, 1.4802544478469493, 11597000000
0.02941692074106522, 0.6490538466931076, 1.4803557000205019, 11602000000
-0.13673023904065965, 0.5948768371085497, 1.4799214047857934, 11607000000
-0.035809996932571045, 0.6709888450388465, 1.4795905833640848, 11612000000
0.016939083899610786, 0.7163360556888088, 1.479104510095909, 11617000000
-0.07152488232588707, 0.6799655259037897, 1.478900153956417, 11622000000
-0.06792948037074092, 0.641172401570377, 1.4780219119117142, 11662000000
-0.10961451898616657, 0.7492088148840733, 1.4781014423319634, 11667000000
-0.06654656480374979, 0.6665478594069013, 1.478142184840437, 11672000000
-0.05647325764804019, 0.6610461122510926, 1.4783930846284508, 11677000000
-0.052392012714049294, 0.6826768492237296, 1.478318977536189, 11682000000
-0.023460680927516832, 0.6669522601894018, 1.4781686220935242, 11687000000
-0.007088787547128283, 0.6441759734067912, 1.4784135213901444, 11692000000
-0.05672453621828638, 0.6880791931249562, 1.4783260312757949, 11697000000
-0.0328745355748981, 0.6488727903514601, 1.4785633396876967, 11702000000
-0.05471045802467303, 0.6764903496454919, 1.4783613465066703, 11707000000
-0.038395054559646556, 0.6895312065513286, 1.4780020769791145, 11712000000
-0.03640633241233331, 0.6597170441120316, 1.47817700928446, 11717000000
-0.053265783096871036, 0.6625190690265236, 1.4781915254940985, 11724000000
-0.059308949715617065, 0.6587226427180508, 1.4779279452123, 11729000000
-0.00991208282840082, 0.6764436344226545, 1.4774989915582302, 11734000000
-0.018150757154808655, 0.6713954344564276, 1.477161398702909, 11739000000
-0.03600371027481207, 0.6876005275998719, 1.4774669076909097, 11744000000
-0.05684532368314076, 0.656669736222228, 1.4770182832571197, 11749000000
-0.043406418082928444, 0.6550218747982799, 1.4768830756512186, 11754000000
-0.02540333818593151, 0.6664789520376208, 1.4765485004749144, 11759000000
-0.040019645838494364, 0.6648929004301727, 1.4760718813200648, 11764000000
-0.03893097477019559, 0.667155077369176, 1.4766075073633842, 11769000000
-0.02515465620832131, 0.6528960344919416, 1.4766245311401234, 11774000000
-0.040646342555334905, 0.6579105798039441, 1.4763697854275282, 11779000000
-0.04258704167734908, 0.6718002163159047, 1.4760105765150195, 11784000000
-0.046107924519353645, 0.6524874446435717, 1.4757658453265132, 11789000000
-0.02888568378967345, 0.6344965929019514, 1.4749918242173732, 11794000000
-0.05970696859154277, 0.6598492870580802, 1.4753753693623268, 11799000000
-0.0413968307527238, 0.684007085375366, 1.4749045501343916, 11804000000
-0.04755957459103473, 0.6706398910489103, 1.4745623496823848, 11809000000
-0.00815187599428148, 0.5855057921250854, 1.4743650796020853, 11814000000
-0.02546414466093886, 0.6828345268490401, 1.474387418741057, 11819000000
-0.005330079396566729, 0.57844246844517, 1.4743532587012842, 11824000000
0.011239991383993023, 0.6139957376500552, 1.473830635566343, 11829000000
-0.01897610506018212, 0.6869675765736467, 1.4737292705095517, 11834000000
0.017152217961681746, 0.6184156848530408, 1.4732182991350962, 11839000000
-0.05909728177283946, 0.7271925453179564, 1.473012413854626, 11845000000
-0.014991159055291449, 0.5633932699450517, 1.4727010474435855, 11850000000
-0.05524328884524836, 0.6911478511128689, 1.4725520033267043, 11856000000
-0.06856560688195895, 0.6790195293950975, 1.472322827105474, 11862000000
-0.045515631883970634, 0.6308837502593726, 1.4722018559471102, 11867000000
-0.044207920636002825, 0.6795879740748287, 1.4725742567185136, 11872000000
-0.014878807640080944, 0.6778291286770687, 1.4725787921866489, 11877000000
-0.02017868004769636, 0.6660915909644661, 1.4726908597671788, 11882000000
-0.03854050984014108, 0.6398955913483173, 1.4731461910187762, 11887000000
-0.056192785767825604, 0.646312221526122, 1.4733383322431244, 11892000000
-0.08032403070993369, 0.6311289093068935, 1.4737899240321943, 11897000000
-0.06648356283418858, 0.6197392413244612, 1.4740574222326637, 11902000000
-0.01906768553711293, 0.6259601023913326, 1.474080029441035, 11907000000
-0.0508478903015345, 0.6671571482988179, 1.474907296877017, 11912000000
-0.03633687242991922, 0.6487488080352867, 1.4754500553233973, 11917000000
-0.03490869588629665, 0.6591299430274545, 1.4754793838362117, 11922000000
-0.03922450470913108, 0.6757199232139267, 1.4762780239026343, 11927000000
-0.06409345124506946, 0.6805278895221327, 1.4759998589209604, 11933000000
-0.0004889987389642102, 0.6452930215390841, 1.4769082203687223, 11938000000
-0.01110661041751255, 0.6032143266554334, 1.4766780395098742, 11943000000
-0.05793070992318314, 0.6297814623988417, 1.4771952844373588, 11948000000
-0.029594643460309936, 0.6645332147019419, 1.477327700451874, 11953000000
-0.014418596435458519, 0.6353534241076749, 1.4776803191258114, 11958000000
-0.046297791329906815, 0.6132243433028568, 1.4778021128810286, 11963000000
-0.015534269543198576, 0.6667162072928946, 1.478062253131072, 11968000000
-0.03972502328232403, 0.6706363713938596, 1.4782105676722421, 11973000000
-0.10496812254218289, 0.6245581764738386, 1.4786649421576963, 11978000000
-0.57614516756302, 0.574882549833048, 1.4831909393135605, 11983000000
-0.144454514407716, 0.6797424397555459, 1.492112372981772, 11988000000
0.2650347880387539, 0.7276798450331123, 1.5012536338522389, 11993000000
0.0018081398241524462, 0.6672069335974978, 1.5109349846187898, 11998000000
-0.14547442531301286, 0.6550445336857358, 1.5186186029134496, 12003000000
-0.04621565504104983, 0.6327260016085179, 1.5278454439060627, 12008000000
-0.1534592291132144, 0.6006413469360834, 1.537882143831632, 12013000000
-0.19868050457520692, 0.6577832663943003, 1.5462823290456273, 12018000000
-0.170027559819869, 0.6420140704436499, 1.5543110140601373, 12023000000
-0.1254546646875549, 0.6513570679329456, 1.5619645173400032, 12028000000
-0.06327760064051575, 0.6709778638678245, 1.5697806564018926, 12033000000
-0.010269177459419765, 0.6818728042708713, 1.575787698985786, 12038000000
0.009788994604409889, 0.6664857666968715, 1.5814949145578006, 12043000000
0.029311832703737807, 0.690697449513415, 1.585135762120184, 12048000000
0.0247503239821059, 0.7324634180811062, 1.5879350116856497, 12053000000
0.013395646904445013, 0.7284518425592434, 1.5886889836898483, 12058000000
0.0358838633619177, 0.6761619560272935, 1.5880785713307028, 12063000000
0.03288673580949109, 0.6444288948960604, 1.5865522342608085, 12068000000
0.07739607258268244, 0.6221796736572319, 1.5841536686068223, 12073000000
0.06280864075173365, 0.6516547956667675, 1.5807787478446051, 12078000000
0.02079018384256523, 0.6708963080685297, 1.5767254261247767, 12083000000
-0.019696235424392684, 0.6558397146611068, 1.572815605402078, 12088000000
-0.019097057074400445, 0.6582039769101202, 1.569036916417038, 12093000000
-0.037960043879676525, 0.6643285444441039, 1.5655778916893406, 12098000000
-0.05716927709343669, 0.6724956488423074, 1.5624017737938651, 12103000000
-0.019609557772722844, 0.6180769353969434, 1.5595415361664158, 12109000000
-0.057295178639464865, 0.6609468023005816, 1.5577886612732434, 12114000000
-0.07660287474360854, 0.7098190907124378, 1.556941503858499, 12119000000
-0.07367257072173874, 0.7055198530444597, 1.5567923049049945, 12124000000
-0.08358548111773992, 0.7009021305141663, 1.5571338639812249, 12129000000
8.771536354400093, 0.7070327472147391, 1.5582429499790342, 12134000000
-0.22705915122175724, 0.7374304642726388, 1.5593185586839844, 12139000000
-0.09532982595384733, 0.7435450661418608, 1.5616473804838666, 12144000000
-0.05517588831872657, 0.7319134661155541, 1.563138800476032, 12149000000
-0.0293333121316718, 0.7455260451139178, 1.5652991462586467, 12154000000
-0.02587304598539854, 0.7331667022937575, 1.5681697152277918, 12162000000
11.440783410900249, 0.6647319327408598, 1.5690354811171299, 12167000000
-0.06366791232170317, 0.8315056241415183, 1.5713221271705275, 12173000000
-0.02790105854898544, 0.7801305459262565, 1.5718161660017131, 12178000000
-0.06365948412567884, 0.7620263154190733, 1.572258073224526, 12183000000
-0.015267515088717504, 0.8353624174651356, 1.572201344857716, 12189000000
-0.021538435830471044, 0.764847422991463, 1.5712178369444003, 12194000000
6.602605856673945, 0.7868678649926528, 1.5710909125230414, 12200000000
-0.18948213074485604, 0.8262213499393476, 1.5698527007374847, 12205000000
-0.11313625890776458, 0.8427177766644324, 1.5694716492861494, 12210000000
-0.06752195388318244, 0.822528205652409, 1.5679042819587117, 12215000000
-0.09864253004683907, 0.8236905533350577, 1.5670831883817853, 12220000000
-0.0418764798654318, 0.8065318488610197, 1.5659945259732742, 12225000000
0.001406477261433066, 0.8289701066126454, 1.565545881006738, 12230000000
-0.04881506295771095, 0.8073914011857635, 1.5646514877117956, 12235000000
-0.05844968618724976, 0.8132245860430667, 1.563943776539582, 12240000000
-0.05519792776703445, 0.8136983297060518, 1.563621881045122, 12245000000
-0.0414502240458125, 0.8293492825151348, 1.5640124134478877, 12250000000
-0.036727158929426865, 0.8106104738044829, 1.563962122161799, 12255000000
-0.05843367494594491, 0.8194864550198452, 1.5642738327257144, 12260000000
-0.06731510695033613, 0.810562496805349, 1.564094518809156, 12265000000
-0.060941791961184995, 0.8151046908688961, 1.5650402270857462, 12270000000
-0.05181864252792635, 0.8222752603006879, 1.5656174408016346, 12275000000
-0.057114973310645925, 0.8071970496410472, 1.5661690163502289, 12280000000
-0.047689252032636575, 0.8044319029225058, 1.5659928060719952, 12285000000
-0.0036558033412090393, 0.8170583547510999, 1.5667388672497942, 12290000000
-0.045881447546369046, 0.8450069642948457, 1.5674709938949303, 12295000000
-0.03555886305251185, 0.8541432155808381, 1.5675614285725246, 12300000000
-0.043660226556299135, 0.8348130752356986, 1.5676426861887207, 12305000000
-0.031122585413315078, 0.8384421096705384, 1.5676602774504296, 12310000000
-0.03534949020319933, 0.8386125723123479, 1.5680042737375994, 12315000000
-0.03158432441808646, 0.820781710245893, 1.5678887808518007, 12320000000
-0.03765223707162572, 0.8256811993774954, 1.5672808621069743, 12325000000
-0.03324965962917472, 0.8302970615192472, 1.566516093086157, 12330000000
-0.0302939843749226, 0.8225630796036184, 1.5665998886891965, 12336000000
-0.017564237195519247, 0.8305326581928743, 1.5659664092585839, 12341000000
-0.01873158520943746, 0.8385632337301596, 1.5658624746325422, 12346000000
-0.04001580697150188, 0.8167897860133152, 1.5653580307544772, 12351000000
-0.06077546443428357, 0.8342294014181804, 1.565378572448786, 12356000000
-0.027726123105429157, 0.8258697351534171, 1.5655801772203704, 12361000000
-0.05289302605638335, 0.8671440658979891, 1.5653828670579562, 12366000000
-0.04163699711154349, 0.8190293099117081, 1.5649802131789043, 12371000000
-0.0350566801247397, 0.8300653344522655, 1.56546391551853, 12376000000
-0.04931218264385865, 0.8370195687921713, 1.565529467523193, 12381000000
-0.0708707263402587, 0.8312212953370062, 1.565735374281811, 12386000000
-0.04107966496673369, 0.8504137133808952, 1.565731484285921, 12391000000
-0.033329352344227306, 0.8331206766084688, 1.5662568521552267, 12396000000
-0.036499662394735524, 0.8472086046900118, 1.5661932184949383, 12401000000
-0.031054283805440903, 0.8500644015897811, 1.566652127147122, 12406000000
0.15476012195767821, 0.7349729433257095, 1.566310747292357, 12411000000
0.005184864406496873, 0.812399046350424, 1.5353865185037383, 12447000000
-0.032980056650801004, 0.8214218045396443, 1.5303619339956145, 12452000000
-0.019215953112811816, 0.8131990394148116, 1.5264577555395429, 12457000000
0.009476584724097133, 0.8281922045378101, 1.52403022720665, 12462000000
-0.023728878781616575, 0.8489604441325689, 1.5200814405028231, 12467000000
-0.04295663221558318, 0.828323955643831, 1.5171593582787433, 12472000000
-0.027836043253660632, 0.8334565570005953, 1.5154254140026078, 12477000000
0.04961241411249951, 0.8033644225496813, 1.51219997344237, 12482000000
-0.21433434207855137, 0.7178645253692236, 1.5090835332472061, 12487000000
0.024293883912619392, 0.8737706610934071, 1.5076110320655447, 12492000000
-0.019060719022342725, 0.8538222516587212, 1.505510622348961, 12497000000
0.029981350914261365, 0.7549963962729935, 1.5034349010491221, 12502000000
-0.11499554638168306, 0.8543989560768438, 1.50198951606602, 12507000000
0.04568370148623706, 0.85268561444474, 1.5001325685361695, 12513000000
-0.10876095365778787, 0.807234162378544, 1.4985781950221093, 12518000000
-0.03704902823150933, 0.8022719830568668, 1.497149532801288, 12523000000
0.08195761137985438, 0.7872925598680331, 1.4959642599421328, 12528000000
-0.10729272094968464, 0.8439939448151748, 1.4942258199379976, 12533000000
-0.06559050045495643, 0.765695752643627, 1.4936431181319367, 12548000000
-0.013720249853640955, 0.8065360711345759, 1.487175218819348, 12573000000
-0.03810848277827732, 0.9058724014852083, 1.4861423360969896, 12579000000
-0.16704293399450262, 0.7306288228986089, 1.4859301052120313, 12584000000
0.07147556988989413, 0.8063537594104957, 1.4854769555466638, 12589000000
-0.023821162243343186, 0.8268250043432213, 1.4848821351621433, 12594000000
-0.07238786144300616, 0.9528945677641384, 1.4843189619854535, 12599000000
-0.014150465710107824, 0.7432389538729692, 1.4834407452309355, 12604000000
-0.07496363638969267, 0.7744516720259184, 1.4835591018665366, 12609000000
-0.16707780719362567, 0.8391332937344217, 1.4832442069849072, 12614000000
0.0514792002854073, 0.8003624694101589, 1.4831413617561549, 12619000000
-0.035042469610491137, 0.813505237909353, 1.4828870666895635, 12624000000
-0.13373918849697713, 0.8241314679784986, 1.482341294823375, 12630000000
0.10264445560121135, 0.842411169154703, 1.482088944564844, 12635000000
-0.0326586047976099, 0.8038219544769277, 1.4817699207974335, 12641000000
-0.14787606163098957, 0.8335485755913632, 1.4816210561811816, 12648000000
0.08702682016644449, 0.7929742413953483, 1.4816674008978825, 12653000000
-0.03629826005875825, 0.7959426387976761, 1.4811952348402848, 12658000000
-0.0653825721747509, 0.8259430205548447, 1.4814155379843992, 12665000000
-0.0328407392902845, 0.8223051026945726, 1.4810107636916028, 12670000000
-0.032207802809776975, 0.8138577919206075, 1.48060265533375, 12677000000
-0.06325351159625575, 0.8126468358558944, 1.4804916889364828, 12682000000
-0.05805921976893706, 0.8369315552769899, 1.4800001523869808, 12688000000
-0.032724814041385414, 0.82435454659623, 1.4806479414865696, 12693000000
-0.08945524621816735, 0.8057721532826806, 1.4801031038561838, 12698000000
-0.13005430054553524, 0.8703717530267291, 1.479803465021982, 12703000000
0.1320629509860866, 0.8084321540098697, 1.479627542286734, 12709000000
-0.03307966285705165, 0.8037373497960717, 1.4796140453676896, 12714000000
-0.08088318227377164, 0.8172984946009224, 1.4797979544349273, 12719000000
-0.03720515729310606, 0.839755169345888, 1.4797938581238506, 12724000000
-0.023660706531361445, 0.8340890228966699, 1.4797571846942195, 12765000000
0.10368443518616342, 0.7802345631687586, 1.4795581637223072, 12770000000
-0.03550497786948795, 0.8318635944205319, 1.479522421740656, 12775000000
-0.17629812613201096, 0.8567525149838315, 1.4796159792567876, 12780000000
0.09720430107879881, 0.7719545636448888, 1.479862560569616, 12785000000
-0.02562333871438994, 0.8355522080761737, 1.479717652955164, 12790000000
-0.15175844874014852, 0.8715483218311008, 1.4795945048871606, 12795000000
0.03528780356604207, 0.8142997599547483, 1.479811367595034, 12804000000
-0.1526797628791025, 0.8498124983061566, 1.4793266989320928, 12809000000
0.060227723951775836, 0.7825723732933852, 1.479548203785655, 12814000000
-0.10755661681684378, 0.8311149019755816, 1.4791754965621882, 12820000000
-0.0036941064164444475, 0.8557155180364473, 1.4785679213595273, 12825000000
0.01315757392657669, 0.8023317824072308, 1.4786034412627218, 12831000000
-0.1863763167909124, 0.7999516832165038, 1.478666002265906, 12836000000
-0.030972278512035226, 0.869161305149961, 1.4781559766981334, 12841000000
0.0745289798247201, 0.8359504741114299, 1.4779298772324054, 12846000000
-0.10136662534878735, 0.807435403475102, 1.4778564501701725, 12851000000
-0.005412898051093271, 0.8509579447622561, 1.477317058897184, 12856000000
-0.04410642005312357, 0.8470156493698773, 1.4771453690252385, 12861000000
0.08155501261468316, 0.7322774250018564, 1.4773097500477828, 12866000000
-0.11660457772246946, 0.8740099539516638, 1.4772726286475897, 12871000000
-0.012496445846837, 0.794816896124219, 1.4769252244307054, 12877000000
5.830297604003094, 0.8456906422719123, 1.4777108422019416, 12882000000
-0.1599107411581063, 0.8485896885382364, 1.477913245831704, 12887000000
-0.07956095692150018, 0.866424361090981, 1.4778923381783653, 12892000000
-0.050257824397602645, 0.850033165543891, 1.4778925502646068, 12897000000
-0.04263693495381334, 0.8700484130462134, 1.477479563037838, 12902000000
-0.006650103087388948, 0.9002708756679568, 1.4774156191692283, 12907000000
-0.05320962930941116, 0.8496961736276303, 1.4773229961643195, 12912000000
4.935456408503577, 0.8924664431376059, 1.478376016531074, 12917000000
-0.12483266662141664, 0.929089817198343, 1.4780314972541198, 12922000000
-0.03849633247954061, 0.9268530068672265, 1.4780661626202505, 12928000000
-0.025874739561468275, 0.9188344314998838, 1.4778990286358915, 12933000000
0.0037425170989019707, 0.915748018999038, 1.4775556935070062, 12938000000
-0.038128897014659754, 0.9182274030079589, 1.4773330368087703, 12943000000
5.542707498459655, 0.9235346659927909, 1.4777166708653826, 12949000000
-0.15718287114782195, 0.9459341985677031, 1.4778307824034016, 12954000000
-0.056519980892473155, 0.9735398508901328, 1.4778391888974702, 12959000000
-0.00968827184961189, 0.968087236686566, 1.4776964820567242, 12964000000
0.01906150023574393, 0.971051576306415, 1.477292047089544, 12969000000
-0.003912572766667018, 0.9986094947960105, 1.4770939849310951, 12974000000
-0.029722627971969895, 1.0141400883205212, 1.4769551120570035, 12979000000
-0.02098261749179254, 0.9927803402540403, 1.4764293457662028, 12985000000
-0.011714901122726915, 0.9891364492511013, 1.4759925987265112, 12990000000
-0.008888146386371622, 0.9525275461298526, 1.4760120055266974, 12995000000
0.01292411749917499, 0.9824533217726691, 1.4755073130830951, 13000000000
0.0018842762789335087, 0.989773320031145, 1.4754395535344942, 13005000000
-0.014648115722158371, 0.9518479877889464, 1.4749520592545962, 13010000000
-0.024353657508360962, 0.973159392643728, 1.474896406062868, 13015000000
0.0029377565787086666, 0.9652612108727148, 1.4744085346069211, 13020000000
-0.009828834521925118, 0.9684111108721216, 1.4742196273852168, 13025000000
-0.0007934546193412236, 0.9715039320017552, 1.473719344369119, 13030000000
0.007875459124536494, 1.009330732708788, 1.4739727840794277, 13035000000
0.04340187890354046, 0.9906081544342143, 1.4737986724376995, 13044000000
0.019786002418773534, 0.9689962884394858, 1.4735377964305467, 13048000000
-0.024145231631419496, 0.9795271578853265, 1.4732625218013882, 13053000000
0.05346459382658905, 0.9836076438378847, 1.4732058367337264, 13058000000
0.012475096205113284, 0.9426825969723613, 1.4728891702695759, 13063000000
-0.003659942633405494, 0.9585319928732235, 1.4728812215958194, 13068000000
0.0005755348648523555, 0.9825439398020874, 1.4729331337734002, 13073000000
0.02669250098371997, 0.9422405826679633, 1.4723602976096877, 13078000000
-0.018495515833718813, 0.9644949557406179, 1.4724177317369829, 13083000000
0.015524239342641912, 1.0050870024602339, 1.472622961014971, 13088000000
0.0202474790715577, 1.0159719213443759, 1.4725189259642482, 13093000000
0.0054251373003269265, 0.975529931607404, 1.4722444283281348, 13098000000
0.015866154903554603, 0.975614031767911, 1.4720028755818613, 13103000000
0.03407595225339329, 0.9868119841907139, 1.4718115644740872, 13108000000
0.02760525605400756, 0.9822137602262282, 1.47144032129484, 13113000000
0.017768715509864447, 0.9993303828223691, 1.4711925638370686, 13118000000
0.04475946830276016, 0.8964060328242073, 1.4711855062514663, 13123000000
0.015648364036429448, 0.9190523145834567, 1.4715658998047378, 13128000000
0.014211867246289514, 0.963818096907367, 1.4716921244790018, 13133000000
0.041273789017961256, 0.9298451443043979, 1.471841447265012, 13138000000
0.04245991819285817, 0.9848301900126422, 1.4728702373525007, 13143000000
0.005937308866496158, 0.9321546539790486, 1.473421596041459, 13148000000
0.0247629803742335, 0.9334560835967394, 1.4742659572207089, 13153000000
0.020732923594424812, 0.920927859425957, 1.4749559495301916, 13158000000
0.05655910557283572, 0.9729354528370594, 1.476131018916466, 13163000000
0.020531019773670528, 1.0009994047143975, 1.4765935023842005, 13168000000
0.022757521054550606, 0.9630651783290338, 1.4779376030534737, 13173000000
0.04872504740812783, 0.9679134451517573, 1.4782619112039017, 13178000000
0.01754260264100678, 0.9644485721427719, 1.4788522706185803, 13183000000
0.08456095299078648, 0.9948737720667938, 1.4803848977165113, 13192000000
0.0074678030422103345, 0.9674388260897675, 1.4811228258015936, 13197000000
0.03874197819611614, 1.0030675231462909, 1.4818253522127078, 13202000000
0.03974367652497279, 0.9861921392873948, 1.4822163092135272, 13208000000
0.019544226890969116, 0.9624050251653425, 1.4827609428559672, 13213000000
0.03799023757219446, 0.98921255552274, 1.4834714470179347, 13218000000
0.036751558766047215, 0.961768127403436, 1.483611313929937, 13223000000
0.02931841381882846, 0.9650072357380901, 1.4843334605852156, 13228000000
0.03462541945252025, 1.0116878828976061, 1.484551975002181, 13233000000
0.04066446580254673, 0.9701889178256227, 1.4846831522274992, 13238000000
0.06731229223512605, 0.9812784456785354, 1.484640268424908, 13243000000
0.034230880231331334, 0.9796536801575056, 1.4852079377521636, 13248000000
0.06132930118116019, 0.9877099543108472, 1.4852756751831309, 13253000000
0.09117454195233024, 0.9767853325917807, 1.4857925161666878, 13258000000
0.034028097775651536, 0.9811267166729222, 1.4856339703670822, 13263000000
0.049160364195338285, 0.9715436334308404, 1.4855846926330039, 13268000000
0.04139553305982569, 0.9571870971788308, 1.4857611882078199, 13273000000
0.06889736711088988, 0.9697926713698581, 1.4862051779570613, 13278000000
0.029006185435958134, 0.9981517761560234, 1.485982227069855, 13283000000
0.02171495851693566, 0.9843474720902788, 1.4859225382432393, 13288000000
0.051390909076997386, 0.9827328389064863, 1.4860142410717783, 13293000000
0.01252976637573737, 0.9469433502536787, 1.4862120611823693, 13298000000
0.054291114185107785, 1.0053893398709992, 1.4859431902894253, 13305000000
0.05807350319437833, 0.9845037624666246, 1.4861396830379598, 13310000000
0.04183980729214032, 0.9797869730570606, 1.486138639871466, 13315000000
0.058790761549912064, 0.9772514423130957, 1.4865402860252037, 13320000000
0.012301348211083786, 0.9869210817901978, 1.4863661944812419, 13325000000
0.08153776622648537, 0.9876607517681447, 1.4864334158319277, 13330000000
0.030509956437031974, 0.9675740467920667, 1.4864233703439327, 13335000000
0.04513175908446904, 0.950211431251611, 1.4867353440784081, 13340000000
0.0713989542104439, 1.0001440005712707, 1.4867113879747929, 13345000000
0.054478255179184455, 0.962865293842063, 1.4867557153979576, 13350000000
0.04269744116441039, 0.9810732126196305, 1.4872554306931993, 13355000000
0.031074156752638086, 0.9790195791872605, 1.487103832485995, 13360000000
0.027454956707039256, 0.9917634028208892, 1.4869442796517645, 13365000000
0.054603344100489004, 0.980648219468023, 1.487042910699191, 13370000000
0.03823216961219639, 0.9871878487631551, 1.4869019360918105, 13375000000
0.0609857763651938, 0.9843528782027794, 1.4869590076254464, 13380000000
0.050383015588638336, 0.9628494805951152, 1.4871345948487267, 13386000000
0.01963603086699055, 0.991974951693702, 1.4864060413242983, 13391000000
0.049583698049028256, 0.983224879417048, 1.487377491819609, 13396000000
0.06000114996674001, 0.967617368092312, 1.4867461373761321, 13401000000
0.08243137427112576, 0.9514017726803349, 1.4866363212467966, 13406000000
0.056342427603386445, 0.9715952663242046, 1.4866912263850884, 13411000000
0.06780803571113564, 0.9806562412219194, 1.4865370435403158, 13416000000
0.018734113554342305, 0.9775715660765358, 1.4861182080226063, 13421000000
0.058503239980825066, 0.9673817960580707, 1.4865321988022262, 13426000000
0.04714759055528912, 0.9917993529824863, 1.486205552261732, 13431000000
0.04790660386542514, 0.9994800689441742, 1.4860463792105552, 13436000000
0.054499898127153404, 0.949220631846578, 1.4861009656651465, 13441000000
0.08018489436712621, 0.9925710561353405, 1.4857715520557626, 13446000000
0.0597521790073988, 0.9911197402113752, 1.486059685912447, 13451000000
0.039166045252611, 0.9780559201986709, 1.485765512312149, 13459000000
0.06364499849601654, 0.9732766978742017, 1.4855609573847754, 13464000000
0.08164553057596839, 0.9723616980507087, 1.485633111542616, 13470000000
0.02569712083262867, 1.0037679961010495, 1.4859307067307588, 13475000000
0.023445559159276798, 0.9876461387168495, 1.4853603108069484, 13481000000
0.03923258014202878, 0.9670826328996117, 1.4857415685787556, 13486000000
0.03503614187948373, 0.9720375676341798, 1.4859164248273495, 13491000000
0.04006283436668282, 0.9915146537544065, 1.4859878382121243, 13496000000
0.07563551374374566, 0.9813610831711131, 1.485510645285086, 13504000000
0.05093647488656001, 0.9635743122035196, 1.4859783409798202, 13509000000
0.06989727386769407, 0.9934551544812116, 1.4859388825392106, 13514000000
0.044949566569361124, 0.9720669033287157, 1.4856283945463353, 13520000000
6.883443908001871, 0.9821659888728107, 1.485604925735887, 13526000000
0.12236099038733307, 1.0576994831289859, 1.487004052822198, 13531000000
-0.013307932687933796, 1.043124971487672, 1.4869680049289657, 13536000000
0.04236237020512385, 1.037700813005626, 1.4867566079835581, 13541000000
0.058185442716246885, 1.0527760387488356, 1.4865740861592127, 13546000000
0.025547304835079047, 1.0296882721373077, 1.486197828106428, 13551000000
0.03965220255118727, 1.0093723721160797, 1.485780797688781, 13556000000
7.1131373931300095, 1.0507783333750982, 1.4865115522682821, 13561000000
-0.07566071360619606, 1.1294890052048627, 1.4861960139179513, 13566000000
-0.014407859987567266, 1.1360845104622936, 1.4865967640463722, 13571000000
0.03932251940684725, 1.0914695994226875, 1.4859666065741388, 13576000000
0.04072958138387977, 1.092362148121661, 1.4853595984497412, 13581000000
0.06953930188074603, 1.074773315593795, 1.4858146619301003, 13586000000
0.07524467427711246, 1.112565512096582, 1.4852589513872037, 13591000000
6.666158874708918, 1.0727588682528093, 1.4854644265212327, 13596000000
-0.02627673484700547, 1.1324589784159804, 1.4853461115636482, 13601000000
0.06272158080716317, 1.1483865414977334, 1.485155240840643, 13606000000
0.017641798644087648, 1.121138826867383, 1.4855452508772053, 13611000000
0.05073782704177484, 1.1598209610660852, 1.484912738054853, 13616000000
0.09178688723669237, 1.1111215296968107, 1.4848424958346764, 13621000000
0.07430237830547162, 1.1299102289803835, 1.4845913075815913, 13626000000
0.04557239463427987, 1.1522468132008108, 1.4841858071897145, 13631000000
0.0578746034352018, 1.1277750327894465, 1.4846079163661456, 13637000000
0.08905042459258725, 1.1292827586226106, 1.4844716768785144, 13642000000
0.055210464350352886, 1.1481352700435103, 1.4845106510718953, 13647000000
0.04892935112576795, 1.1826020341797685, 1.4838187038139998, 13655000000
0.06882188458670394, 1.1389126643076808, 1.4839460462825773, 13660000000
0.07745468901205303, 1.1157100906445176, 1.4836304830246376, 13665000000
0.053527556899881146, 1.138407252538267, 1.483451346169272, 13672000000
0.06593239049438275, 1.151162964067015, 1.4835547609931712, 13681000000
0.03159269234202143, 1.1115479284142549, 1.4830657955207467, 13686000000
0.0779579941118693, 1.138570371650977, 1.48299468068634, 13691000000
0.050980322228377326, 1.1252328788891752, 1.4826122330702376, 13696000000
0.10220394570946226, 1.1196793798871927, 1.4822308388698056, 13701000000
0.06964684324678083, 1.0953252390492267, 1.482103908404072, 13706000000
0.0716441905372532, 1.1091642011567295, 1.481538160458488, 13711000000
0.06827962187481602, 1.1520011462112116, 1.4814610247141355, 13716000000
0.07584696171824856, 1.1243559749372192, 1.4817532826447701, 13721000000
0.0946542181258459, 1.1069029838545017, 1.4811511588345196, 13726000000
0.10130826191073425, 1.1395799428845164, 1.481264805401909, 13731000000
0.07459495214160605, 1.165609676078177, 1.4812085919611744, 13736000000
0.047918691261627094, 1.1288734149974755, 1.4809437549972786, 13743000000
0.050190124119960516, 1.1278164194481246, 1.4805070330940873, 13748000000
0.09439030576693241, 1.1355701872945434, 1.4804692632926348, 13753000000
0.06486087174115629, 1.13528246109106, 1.4806395886095658, 13758000000
0.08632714726408965, 1.1530946859528115, 1.4803899899654207, 13763000000
0.0732871566650176, 1.1175509591068715, 1.4803174337383984, 13768000000
0.07981669205099141, 1.1393133153744088, 1.4801754557596758, 13773000000
0.07961975557100116, 1.1538391745683387, 1.4801472710528951, 13778000000
0.07266735309898395, 1.141487112478873, 1.4800269370311108, 13783000000
0.07386123290545675, 1.0791729229172917, 1.4801410416000713, 13789000000
0.09088704535447385, 1.1428094778895357, 1.4797627652365928, 13794000000
0.08459393917093327, 1.1694328582049935, 1.4792557178776775, 13799000000
0.07623430104765581, 1.161910838146169, 1.4792940966735186, 13804000000
0.04443170064069964, 1.1472224490998013, 1.47926715812363, 13809000000
0.06470858734288154, 1.16002692117346, 1.4791690879552224, 13815000000
0.032744315879978496, 1.2085932758514712, 1.4817997227682445, 13821000000
0.1335138754462174, 1.0920978520591753, 1.4822751825943081, 13830000000
-0.6197317644690479, 1.119530421593386, 1.4843813914440656, 13835000000
0.6461384217696327, 1.1776456360011454, 1.4873029607991468, 13841000000
0.08455152207670928, 1.1277442492279528, 1.487312343571709, 13846000000
-0.6589173151283817, 1.1449788608459122, 1.489422217633109, 13851000000
0.6445449511771815, 1.2368761608544898, 1.4930273456594079, 13857000000
0.08598825827182666, 1.039552673977704, 1.4924247337392076, 13862000000
-0.6371819148982272, 1.1404909868895188, 1.4955710168744238, 13867000000
0.7197063304067717, 1.2728015883709674, 1.4981281185359059, 13872000000
0.2406276882598707, 1.073547491415035, 1.4979640249816095, 13877000000
-0.7003891289723578, 1.1661803404621032, 1.499913409882995, 13882000000
0.14649687324845775, 1.2504084853733755, 1.5035907234095267, 13887000000
0.6689564629192466, 1.1542561498008477, 1.5031712570336435, 13892000000
-0.8933515299236006, 1.1212469242725651, 1.5049937931496498, 13897000000
0.1548242148987801, 1.2324604006383664, 1.5073137755848798, 13902000000
0.800501528002637, 1.0508753607466177, 1.5078983181019106, 13907000000
-0.9352115687351079, 1.1842718482544303, 1.5086312991789432, 13912000000
0.11864514733146647, 1.2383178754470008, 1.5113730965403, 13917000000
0.9862803091616859, 1.02920507413883, 1.5114754692646573, 13922000000
-0.5802980057766174, 1.14751648426266, 1.5111289274204929, 13927000000
0.12990185876886684, 1.2426313413032246, 1.5141896684074299, 13933000000
0.9381946097303976, 1.1598852158724, 1.5141152939727525, 13938000000
-0.5406204296819932, 1.1296391526190037, 1.5132028812582572, 13943000000
-0.0410000397484969, 1.2024588982728872, 1.5151083936597844, 13948000000
0.9225038392487724, 1.178356785065338, 1.5158423474966007, 13953000000
0.13329284318329238, 1.156066708215814, 1.5141034281500187, 13958000000
-0.4344293877270344, 1.2038488227655795, 1.516307588546009, 13964000000
0.8520422342447712, 1.1412673738802614, 1.5152820442627024, 13970000000
-0.6160322665712352, 1.1977662197666297, 1.5137294318450336, 13975000000
-0.13085299294024721, 1.1506183871217923, 1.5147779255194902, 13980000000
0.7052984827716783, 1.14901163903788, 1.5159760988628939, 13985000000
0.09048844962531295, 1.131459373421471, 1.5133878770059483, 13991000000
-0.7612717032708214, 1.2227997218267943, 1.5145835985091494, 13996000000
0.9250359856491582, 1.1181381919058724, 1.5136102759346752, 14001000000
0.04915267980570162, 1.2250107076925674, 1.5112519074780462, 14006000000
-0.7088548252788062, 1.2257631172846803, 1.512581466371157, 14011000000
0.87562094875623, 1.117329754899347, 1.510470922379362, 14016000000
0.04818849803122201, 1.1737104749191798, 1.5081467308729342, 14021000000
-0.994018073577974, 1.186199181361847, 1.5088353543903972, 14026000000
0.7771073692156362, 1.1393948226904473, 1.5087295111678318, 14031000000
0.09520396906507422, 1.1443488640974075, 1.5070626453038145, 14036000000
0.10926007089259106, 1.1806173477211535, 1.5042490467890504, 14041000000
-0.9348721895728551, 1.2220979083668968, 1.5040258401205358, 14046000000
0.753511840633081, 1.113990253364568, 1.5034470956034722, 14051000000
0.04065333883715987, 1.1566705275222886, 1.5014259918932427, 14056000000
0.09638822958738888, 1.1640162660922115, 1.4994566785827652, 14061000000
0.06206496876969887, 1.1357824412002082, 1.4967466777965064, 14066000000
0.0931581589041028, 1.1588267585585983, 1.4946966162678863, 14072000000
0.1210214180048449, 1.2056556665777196, 1.4944936585363795, 14077000000
0.05676568802008568, 1.1422831332585563, 1.492480809053513, 14082000000
0.04991814709427744, 1.1728037092215808, 1.4906287302605912, 14088000000
0.06747837917890735, 1.188966465295938, 1.4887289314974455, 14093000000
0.10329751567129425, 1.1375047675712162, 1.4876257074383492, 14098000000
0.03679670535990496, 1.1547357385228623, 1.4868010805394578, 14103000000
0.07376029367449528, 1.1006412774101817, 1.4852688474672178, 14108000000
0.06345310466071732, 1.1466648437842142, 1.483467928978256, 14113000000
0.06156319826176174, 1.1314840468997105, 1.4820586073199307, 14119000000
0.07065540287039074, 1.1783066101470892, 1.4812798053732747, 14124000000
0.08879132493714206, 1.1659010789413715, 1.4804211531054499, 14129000000
0.06536443789440269, 1.1472867152155204, 1.4797863818850905, 14134000000
0.08210029746473888, 1.1881211489546366, 1.478948927173325, 14139000000
0.07295215900093222, 1.1771970477810876, 1.4780230820627338, 14144000000
0.07749003669891905, 1.0922488529350565, 1.4776346632369333, 14149000000
0.05140124561856929, 1.099604115629513, 1.4775381470232458, 14154000000
0.07659683858417796, 1.065465320839824, 1.4774651633404645, 14159000000
0.05640710511468629, 1.117395610528523, 1.4779257860927506, 14164000000
0.053881347021195486, 1.1044738291654281, 1.4785101926523692, 14169000000
0.08154553350490186, 1.1250742352440435, 1.4789046276350486, 14174000000
0.07514751606907129, 1.1245984127327777, 1.479819993895278, 14179000000
0.06798843621578522, 1.1800328916050795, 1.481261901615759, 14184000000
0.07663586901922437, 1.1642640094098617, 1.4816602706128477, 14189000000
0.08466392927648793, 1.1683690956359525, 1.482480175649221, 14194000000
0.0376638681372239, 1.1484757333216933, 1.4830333903483905, 14199000000
0.04050373293614105, 1.1453303855266592, 1.4834318713541346, 14204000000
0.08053701999854877, 1.1409624679559078, 1.4839402224544744, 14209000000
0.04347909188652183, 1.138078089262344, 1.4846107135785385, 14214000000
0.07620283257886301, 1.1566747169785758, 1.4850135488390723, 14219000000
0.049665040066187736, 1.1429846252637184, 1.4856528320211364, 14224000000
0.07254990401182843, 1.1486371616981728, 1.486064297815257, 14229000000
0.07362101438165594, 1.1908207945786018, 1.4861269177014231, 14234000000
0.06929782893577174, 1.1456763185000567, 1.4863805964784393, 14239000000
-0.6370682021086482, 1.1054974487285687, 1.4883079405821957, 14244000000
0.8020860667843297, 1.1478230396131968, 1.489369876404805, 14249000000
0.0166284637480741, 1.214352828482378, 1.4898165509694876, 14254000000
0.013981542496902602, 1.1549844296977014, 1.4898900095631198, 14259000000
-0.6541022922042712, 1.0839163847488669, 1.4915988866583665, 14264000000
0.8495934007563328, 1.1429046429079925, 1.4932538683664083, 14269000000
7.024301706214675, 1.176860487515462, 1.4940531424768413, 14274000000
-0.6436998179303728, 1.1920626874133449, 1.4951510135478288, 14279000000
0.6184135941776997, 1.1868901770127125, 1.497286324430926, 14284000000
-0.015435740449467468, 1.230895814484703, 1.4972732167428586, 14289000000
-0.7391500882714007, 1.1802924813778843, 1.499084334790685, 14294000000
0.9408135234926621, 1.203665063207218, 1.5008191584702082, 14299000000
-0.015705095241622533, 1.241306878363061, 1.500114059411206, 14304000000
6.381921243548872, 1.166663398475235, 1.5048916988149257, 14309000000
0.733470759336861, 1.3150296404849686, 1.5056308013613604, 14314000000
-0.7540625060344014, 1.2878245303123486, 1.5063805756029893, 14320000000
0.13933157825459272, 1.1822909628320217, 1.509731983383777, 14325000000
0.773248283374208, 1.3890993220006047, 1.5091961871411934, 14330000000
-1.0043935249405629, 1.2370748461237384, 1.509690772307044, 14335000000
5.084580949342405, 1.218796136883834, 1.512989220126854, 14340000000
0.27157309056516465, 1.3146128165398878, 1.5146855590857542, 14348000000
0.022062960008484758, 1.2871206977444785, 1.5177586854013903, 14353000000
0.7936957308049591, 1.3907285612882927, 1.517173460941356, 14358000000
-0.8247353350182557, 1.327219887182435, 1.518572146012749, 14363000000
0.07286129257115254, 1.2573530786995568, 1.5219029629096457, 14368000000
0.6724891613111283, 1.3678536298324528, 1.5236914266719228, 14375000000
-0.7925408123579109, 1.3162884066171483, 1.523996057289852, 14380000000
0.05123346156513577, 1.3068490371237924, 1.5272742864949351, 14385000000
0.8496631421371327, 1.3505028526312504, 1.5281803191697696, 14390000000
-0.8196794812318879, 1.3705678976646003, 1.5283796803185599, 14395000000
0.08679900082451705, 1.2852710565900085, 1.5311170996829804, 14400000000
0.8907664070242131, 1.3552267169369479, 1.5316962056715002, 14405000000
-0.8828336612591162, 1.3559912959968032, 1.5303676448901908, 14410000000
-0.08219039389006252, 1.2748043058652434, 1.5329482798962082, 14415000000
0.926607543417447, 1.350120961729861, 1.533194587952451, 14420000000
-0.9210988734545339, 1.371415015532572, 1.5319756247966225, 14425000000
0.10113204811528102, 1.2514979712717085, 1.5339809100235309, 14430000000
0.879856723545819, 1.360525370955451, 1.5348868299426834, 14435000000
-0.6610038464900269, 1.3781437851655844, 1.5329386760873545, 14440000000
-0.11359783804024098, 1.2727917780315767, 1.5350682618666625, 14445000000
0.8864313176417175, 1.3740900414319295, 1.535727598520083, 14450000000
-0.6811684416838819, 1.3592156519456762, 1.533375274032801, 14455000000
-0.2078170441316601, 1.3318350885240449, 1.5350961079392016, 14460000000
0.700217833312835, 1.3645852231232303, 1.5357680142899655, 14465000000
0.029228509013342015, 1.3429340964674021, 1.5332144373815901, 14470000000
-0.8787859368239604, 1.295409779660139, 1.534657079437107, 14475000000
0.7898124781650192, 1.3486683689425878, 1.5357820112014797, 14482000000
-0.6135956673541948, 1.3383607945362472, 1.5337277643274347, 14488000000
0.07635451344417334, 1.2678733525714054, 1.5360792282635072, 14493000000
0.9540960035568342, 1.356204905084556, 1.5343948536509733, 14498000000
-0.7862174658357297, 1.3787422798333733, 1.532497825193153, 14504000000
0.028310438687575136, 1.3253662980595147, 1.5348475731381677, 14509000000
0.7131097557782732, 1.3674747161262788, 1.5328900280134794, 14516000000
-0.9309527757684912, 1.3438382437663405, 1.5326962511309705, 14521000000
0.8220543506330815, 1.3291818820654824, 1.5339792107121981, 14526000000
0.22393257436758734, 1.3563050196790738, 1.5314962919057398, 14531000000
-0.8998751000448562, 1.3272742708324765, 1.5297872551242921, 14536000000
0.04606282648135605, 1.292234864343048, 1.5318184932198242, 14541000000
0.9354819850394306, 1.362507497104119, 1.5295876273308455, 14546000000
0.01439409964272784, 1.3414442882105755, 1.5264932469268435, 14551000000
-0.8532313687213898, 1.2896250069526725, 1.5277607495247447, 14556000000
0.8704871923430734, 1.3832594177490651, 1.5277125010802564, 14561000000
0.0620154982905889, 1.3242678406932613, 1.5254063676700418, 14566000000
-0.8910308962898819, 1.2826113074148155, 1.5240947439572035, 14571000000
0.7865220211057763, 1.3035335915951645, 1.5256021570520353, 14576000000
0.2016973733088387, 1.3657416846307577, 1.5232481074031703, 14581000000
-0.7181193993451079, 1.3382553962612849, 1.5208031932611614, 14586000000
0.5551147088400757, 1.3398517707556457, 1.5226110279687388, 14591000000
0.18260192351119645, 1.3137514028988284, 1.520149684592885, 14596000000
-0.7142592427509669, 1.3113063261578648, 1.5185628181138062, 14601000000
0.5370802260857427, 1.2967011341069616, 1.5200093329677227, 14606000000
0.19850598950873255, 1.3507369810225718, 1.5181399444699584, 14611000000
-0.6984752100793481, 1.3480468710462428, 1.5167369194349622, 14616000000
0.4931068319561211, 1.2918164759962047, 1.5182318861464617, 14621000000
0.20089768321398008, 1.3789601208064879, 1.5167978563367988, 14626000000
0.035020429781446843, 1.3402557094052356, 1.514539171056148, 14631000000
-0.888176267771272, 1.253108278105263, 1.516545902703395, 14636000000
0.8446474748736564, 1.2977301493424247, 1.5151170267864276, 14641000000
-0.5543595140371174, 1.3544682548717772, 1.5136104677886788, 14647000000
0.502396967628502, 1.2628679061342412, 1.5153842486849833, 14652000000
0.19338140531422476, 1.3357374740276322, 1.5140585438554957, 14657000000
-0.02363692943773937, 1.3307543960035417, 1.5116456844337238, 14662000000
-0.8117215763114078, 1.3119770205103893, 1.5138243076488822, 14667000000
1.0320297343406128, 1.3193646981210423, 1.5131990312424537, 14672000000
0.017647478577426177, 1.333647763879211, 1.5107631711442622, 14677000000
0.03554607311549988, 1.2819619589397842, 1.511530408575738, 14682000000
-0.08798271496991333, 1.365130394141499, 1.5103010663875596, 14687000000
0.10248243125454044, 1.3319484186561785, 1.5078042081224685, 14692000000
-0.026806770229602147, 1.3275786673243148, 1.506068393046425, 14697000000
0.04297199098888863, 1.2733429615570957, 1.5035278865081052, 14702000000
-0.10836517850642319, 1.3847624707211368, 1.500974504343466, 14707000000
0.016273859703624535, 1.2818209854111422, 1.4990254085892283, 14713000000
0.03246151647376071, 1.3689629744613772, 1.4960942143233211, 14719000000
-0.13175597432658648, 1.296092648676952, 1.494213091919067, 14724000000
0.12769675664839525, 1.2900146119168365, 1.4925140760851796, 14729000000
-0.018879069690428414, 1.2629576157050695, 1.4914014465269176, 14734000000
-0.03653478349200816, 1.332185485841578, 1.4905883246052585, 14739000000
-0.016347436026561125, 1.3088597241108297, 1.48968566675776, 14744000000
-0.012344449847412302, 1.2940619017627184, 1.488305889799325, 14749000000
-0.024279383922137736, 1.3083500850199945, 1.4873311871580073, 14754000000
-0.02039747446951834, 1.3238852996523267, 1.4863312718673831, 14759000000
0.014446295268347963, 1.314019585879959, 1.4859393602585844, 14764000000
0.03241116656815689, 1.2790474525181146, 1.4848065108656716, 14769000000
0.007446231123111328, 1.2821851580910821, 1.4843599931898404, 14774000000
-0.03455315825496716, 1.293598594352493, 1.4843055923058206, 14779000000
0.012054293218045568, 1.3089330021659165, 1.4837050533915088, 14784000000
0.005885518527043974, 1.27122655387955, 1.4833420514150601, 14789000000
-0.005695923242119578, 1.3006635934615358, 1.4829172028856263, 14794000000
-0.006929097104596405, 1.294936695531797, 1.4827232208752519, 14799000000
-0.03048990176258013, 1.355423166780347, 1.482722998628949, 14805000000
-0.009164034972221003, 1.322016613767115, 1.4824481438239185, 14810000000
-0.02940315290171126, 1.3073263512697355, 1.4821328012175026, 14816000000
-0.02018616759480708, 1.2735644959600982, 1.4824753513120321, 14821000000
-0.021733895355053517, 1.32383348385445, 1.4821564908508547, 14826000000
-0.015414981822116787, 1.3063367299203374, 1.4825229115686587, 14832000000
-0.09153059597243188, 1.3042775621092733, 1.485095548082734, 14837000000
0.10281083237723856, 1.3348865108935146, 1.484960304251921, 14842000000
-0.10086093453318287, 1.3473021288517146, 1.4853780548291042, 14847000000
-0.7060421148108202, 1.2382843065402056, 1.4875846117324276, 14852000000
0.7136455076112577, 1.3512685534281055, 1.4904960982182698, 14857000000
-0.02701067227412673, 1.3830636155071796, 1.4908749413764266, 14862000000
-0.6165872149331622, 1.3373356062094075, 1.4910025429055407, 14867000000
-0.22029301105727023, 1.2573595523641026, 1.4944267284500277, 14872000000
0.7414400676099442, 1.2874876742598347, 1.4958400235678428, 14877000000
-0.520673499588803, 1.3250272469442146, 1.495912871260479, 14883000000
-0.18507736981657277, 1.2429821855116903, 1.4986255674753397, 14888000000
0.7228879217880487, 1.2733126506017456, 1.5011726968196089, 14893000000
-0.4874121112509065, 1.3882779416140956, 1.5011539461121963, 14898000000
-0.17854177149108588, 1.3452704536544275, 1.5030673807359796, 14903000000
0.4226303158994937, 1.3286029289492503, 1.5057637564122532, 14908000000
0.2445325310719976, 1.3604268424101524, 1.505660064731896, 14913000000
-0.6487193576043079, 1.3135791332000657, 1.5078591250872926, 14918000000
0.4674734378925629, 1.3317777649109965, 1.5098812090878013, 14923000000
0.5095260451458322, 1.3804290452112478, 1.5097711359008203, 14928000000
-0.6384358340386944, 1.34123172335423, 1.51030433027403, 14933000000
-0.07347343640433365, 1.3071085023884517, 1.5126540724841144, 14938000000
0.8696011294113867, 1.37255328588423, 1.514022970752114, 14943000000
-0.8567184907279498, 1.349802796992777, 1.5140425108664342, 14948000000
-0.097750309705534, 1.3214479623733548, 1.5171831083088543, 14953000000
1.2668290208897768, 1.4378388227749088, 1.5162121779205349, 14958000000
-0.8505249813224735, 1.2699077002842123, 1.5166026446554377, 14963000000
-0.17979547550924596, 1.37008275606439, 1.5232182648153625, 14973000000
0.2023396788509156, 1.3406682169775808, 1.524666067459996, 14978000000
0.1599014839853165, 1.2673058984495118, 1.5265688237606743, 14983000000
-0.10100894546574099, 1.3288889834824784, 1.528758779514049, 14988000000
-0.2608303569289768, 1.4462454118877903, 1.5323375731981836, 14993000000
0.09715786780927468, 1.3477993483628532, 1.534169903707206, 14998000000
0.13158871958362006, 1.2602408725105156, 1.5355730694297378, 15003000000
-0.2848600939369685, 1.428266107581301, 1.537214808250416, 15008000000
0.0637574884672825, 1.3563271653497235, 1.5389499709197365, 15013000000
-0.013667657655045573, 1.3859172625855385, 1.5399029389389898, 15018000000
0.21079970651983485, 1.2363244629864087, 1.5407672295306907, 15023000000
-0.21134709766690288, 1.430879742486851, 1.5423016899784574, 15028000000
0.11295805925682392, 1.3179526287783256, 1.5439218205793743, 15033000000
-0.009790806435952355, 1.3679434919536844, 1.5447502188563957, 15038000000
-0.06285626803377409, 1.3397191950501486, 1.5450230428305285, 15043000000
-0.012928761452975538, 1.338259198063137, 1.5456888295415399, 15049000000
0.00928853078378906, 1.357658158445427, 1.5454832208796765, 15054000000
-0.10049728240532298, 1.318005513092019, 1.5462934719993378, 15059000000
-0.032380909151460004, 1.3784304005343637, 1.5484454409562476, 15064000000
0.9409019151981596, 1.3632322022065557, 1.5456179292692942, 15069000000
-0.7673174240407463, 1.2107336352751479, 1.54653724511758, 15074000000
0.6571672055310034, 1.4011407692870685, 1.5414522212116708, 15079000000
0.12971146378198642, 1.3235356207417437, 1.5363469122331783, 15084000000
-0.034916012684293535, 1.2973416292026694, 1.5319447261872277, 15091000000
-0.1284543419965907, 1.4049307282488146, 1.5246710131320738, 15096000000
0.05555876999252203, 1.4058555948072382, 1.5191807383591043, 15101000000
0.10735230613272881, 1.2598808988690593, 1.5160173830080634, 15106000000
-0.03166717921186277, 1.3868210315963647, 1.5114261351727767, 15111000000
-0.03255091674050485, 1.3046205279380179, 1.507154554175241, 15116000000
0.18751979197120394, 1.2381296004650209, 1.5053915387813794, 15121000000
0.042338803193717224, 1.3519258073185145, 1.5002917274107852, 15126000000
-0.1292775906106952, 1.2775571670838919, 1.4968451786071573, 15131000000
0.07785787131493684, 1.2474674415227414, 1.4941300534189412, 15136000000
0.2393496664257805, 1.4032079609997714, 1.4916426415385855, 15141000000
-0.24360239290060706, 1.217926391108497, 1.4879319758526173, 15146000000
-0.02956173889670302, 1.249151932616305, 1.4859131586669294, 15151000000
5.674915745726746, 1.3056205622807124, 1.4848361046178578, 15156000000
0.16361982387649543, 1.3829927259713146, 1.4840304521279823, 15161000000
-0.09968905696222424, 1.3598199594966756, 1.4829179438771707, 15166000000
-0.037910032242994295, 1.3700140703536703, 1.4819661168979394, 15171000000
-0.016555895948602437, 1.3838811792176275, 1.480655101676674, 15176000000
0.01924361511556684, 1.2542743899254891, 1.4797361398332738, 15181000000
-0.0030196161290700595, 1.284862634579923, 1.4794468012789026, 15186000000
4.836954532845242, 1.2677580122442842, 1.4784789167280394, 15191000000
0.35685743432306466, 1.3197185011926875, 1.4787985289748038, 15196000000
-0.18494966697911638, 1.3781113311975777, 1.47827151587662, 15201000000
-0.03180040137509663, 1.3001451069939625, 1.4781992163554591, 15206000000
0.017929559481859574, 1.3793968418637537, 1.4787541825297803, 15211000000
0.026399410500515988, 1.4367670082631137, 1.478741409918274, 15216000000
0.005986787240811891, 1.4274506306614565, 1.4786377163049356, 15221000000
6.581233750828209, 1.3796657877181122, 1.4795771318362005, 15226000000
-0.06284347472862815, 1.4550471164051353, 1.4803232151681098, 15231000000
-0.04375728649664713, 1.446797675984823, 1.4809228767696259, 15237000000
0.027222547490314147, 1.4290016967705834, 1.4813256865177, 15242000000
0.04234943798432902, 1.4126031231496574, 1.4812230131769875, 15247000000
0.028770079285878818, 1.4297406830907713, 1.481477520365966, 15252000000
0.039362095799785266, 1.4421524650282331, 1.4813887955139171, 15257000000
0.04936498836346749, 1.4221487085083933, 1.4819450898905921, 15262000000
-0.025765435341216746, 1.4225868211430126, 1.4823811957986386, 15267000000
0.013751044957029834, 1.423283687580222, 1.4826945341136266, 15272000000
-0.011124303696195836, 1.436878647657902, 1.4831970305163125, 15278000000
0.010591889234215824, 1.4392049887665355, 1.4839081448622689, 15283000000
0.020692045898285334, 1.4039737733178748, 1.4839124341317815, 15288000000
0.012605682067758464, 1.5176181393698502, 1.4839931332302463, 15293000000
0.03185985689271714, 1.4765506130124577, 1.484716913734954, 15298000000
0.004427816228263996, 1.4249099132280507, 1.484364647225384, 15303000000
0.003416502798449423, 1.4384271096664518, 1.4844979248654124, 15308000000
-0.0003166385301372359, 1.356899749803066, 1.4844253411445936, 15313000000
0.01411127883493185, 1.4147566205366306, 1.4846202434211908, 15322000000
0.006521942098124792, 1.4514257523142367, 1.4846366236092157, 15327000000
0.04324348514309368, 1.4113660647392678, 1.4841770863974775, 15334000000
0.020697562122173167, 1.4400375496366966, 1.4841933733983723, 15339000000
0.009457906988077157, 1.434263834849531, 1.4839139973967184, 15344000000
0.03652243001658122, 1.42878716678053, 1.4841841821224133, 15349000000
0.044148789181104625, 1.4306824493832084, 1.4839977146115, 15354000000
0.005745913649557698, 1.4170499766867177, 1.4842394271694357, 15359000000
0.02499329909224871, 1.4250651264090617, 1.484342052784123, 15364000000
0.03010655067773193, 1.4041654798007726, 1.4845016327967802, 15369000000
0.0256278084660456, 1.457754478934186, 1.4851914861973392, 15374000000
0.03555085960726309, 1.434177054303544, 1.4857614663077279, 15379000000
-0.007205501534358259, 1.406848595660495, 1.4862552047147612, 15384000000
0.01512064710359098, 1.4132336737601643, 1.486105654460279, 15389000000
0.027640798662563703, 1.458086032040227, 1.4864740660705718, 15394000000
0.040359080815424116, 1.4388295866446477, 1.4869025697921574, 15399000000
0.025062735436566744, 1.4374974064939767, 1.487255389113765, 15404000000
-0.015283701326192875, 1.438573676962841, 1.4870859171468358, 15410000000
0.002427856445302152, 1.4307079227158193, 1.4873532465008332, 15415000000
-0.00761971333674839, 1.4756756305908643, 1.4871620704929895, 15425000000
-0.004186370974064418, 1.4522985028802962, 1.487412755676434, 15430000000
0.03424613344472159, 1.4303167702686908, 1.487675286281793, 15435000000
0.021113231373216853, 1.430308653576492, 1.4878106917610474, 15440000000
0.009726156529581545, 1.416883665593027, 1.4877030438473415, 15445000000
0.01003525330783615, 1.4375586978924784, 1.4876093527486116, 15450000000
0.02608173806950903, 1.4270232653507318, 1.4869815452299506, 15455000000
0.01753922682615623, 1.4376428882918, 1.487619318430583, 15460000000
0.013226667008021284, 1.4401855722887928, 1.4872640663982932, 15465000000
0.01194096658520323, 1.4521170248715098, 1.4869999429598586, 15470000000
0.02312386072494877, 1.4208623582576172, 1.4870989475637386, 15475000000
0.019450636833728295, 1.433966468031939, 1.487437935219543, 15480000000
0.013894342798818451, 1.4335275975106396, 1.486738760713976, 15485000000
0.004240652413323371, 1.454576718065658, 1.4873974251646849, 15490000000
0.004924581727640256, 1.428903239484935, 1.4872573627800127, 15495000000
0.019841331477738058, 1.4522236190218774, 1.4871385377887871, 15500000000
0.02527995091861452, 1.3866901842274166, 1.4871020438386293, 15505000000
0.014290591265422493, 1.4317133585983564, 1.487132698399884, 15510000000
0.026808070405009866, 1.4203991859625256, 1.4872403688886526, 15515000000
-0.02069288791071907, 1.441758344328675, 1.4868913817569143, 15520000000
0.028618129693876462, 1.4669011189853658, 1.4866559724345416, 15525000000
0.01601509678605587, 1.4504987806457932, 1.4864006713728404, 15530000000
0.03165569966059403, 1.4419317441026116, 1.4864962867750466, 15535000000
0.02579513955972999, 1.454316955321665, 1.4860585751548168, 15540000000
0.027183060611179033, 1.4199764212693837, 1.4864077469168042, 15545000000
0.045965859047405196, 1.4326289309711016, 1.4861021651044872, 15550000000
0.016522601258333405, 1.4303525087558893, 1.4860519997144015, 15555000000
0.014025422644559193, 1.4125651480660548, 1.4865059690287972, 15560000000
0.027349765445805217, 1.4430705761503646, 1.4863429693885926, 15565000000
-0.0006677931438650447, 1.4434132015178973, 1.4866002254004917, 15570000000
0.018212850574877093, 1.4195782188676158, 1.4863557909890208, 15575000000
0.030384146425185478, 1.4512390859408537, 1.486193615958791, 15581000000
-0.021872277516071854, 1.4257715532941202, 1.4862495701026979, 15585000000
0.04527380925256837, 1.425145645849845, 1.4865826085041847, 15590000000
-0.5829636149459433, 1.4488682834481157, 1.491192196140834, 15597000000
0.7780514912514649, 1.3558900288389737, 1.492812122196501, 15603000000
-0.6124274157710652, 1.4838239407504048, 1.4953237130374397, 15608000000
-0.030071132323261758, 1.4208731740456966, 1.500064359944703, 15613000000
0.06602494912998462, 1.444360205381573, 1.5032006812470238, 15623000000
0.04653828061031162, 1.4479422276057718, 1.5070330418920903, 15628000000
-0.10630545572120584, 1.5744055335086, 1.5115511177422971, 15633000000
0.24387547401955376, 1.3788014160749493, 1.5132863766208302, 15638000000
-0.1613574496086954, 1.4643550792335032, 1.5164125048776713, 15643000000
0.05012173043416918, 1.4841196109090722, 1.519076117847912, 15648000000
0.11282727427326893, 1.5432823072772648, 1.5222469376982999, 15653000000
0.09536344762643631, 1.4241461451151733, 1.5250456158462502, 15658000000
0.7009315552182014, 1.5365264797482252, 1.5270752499208402, 15663000000
-0.9343309297462147, 1.515503958506316, 1.5282990010689383, 15668000000
0.0012868920564883552, 1.5080503666477219, 1.5301898367232578, 15673000000
-0.009342537227343066, 1.4939704420572288, 1.532415005976096, 15678000000
-0.0012096100835233242, 1.5035966054273913, 1.534435034483313, 15683000000
0.001371590900150438, 1.4642500677979668, 1.5362068189093885, 15688000000
0.01571280577622248, 1.4874840833104324, 1.5373766127182453, 15693000000
-0.0384199521813839, 1.499962612721134, 1.5392210992250301, 15698000000
0.003647750205775313, 1.4951584491640526, 1.5403649651642066, 15703000000
-0.0006327821122062687, 1.4989604880933824, 1.5422099247760097, 15708000000
-0.03075260279878807, 1.5033239036643815, 1.543508437927455, 15713000000
0.019314295395754376, 1.510860096835186, 1.5437609501113994, 15718000000
0.0057104722179431855, 1.496789750894759, 1.5453806510137227, 15723000000
-0.025602224604255437, 1.5135039189994304, 1.546234838004742, 15728000000
-0.014729143244385557, 1.5141768014070316, 1.5467498200639849, 15733000000
0.027239985273453803, 1.5103963275772834, 1.5474326217442682, 15738000000
0.0334030475777375, 1.5097827245821263, 1.548166039957742, 15743000000
0.041325807033079656, 1.4901172187367047, 1.5490521373703334, 15748000000
0.033149174705377836, 1.4934782579993802, 1.549124019496042, 15753000000
0.04662406595696989, 1.5072186248991122, 1.5505555487806304, 15758000000
-0.01465593790214621, 1.5253542055850704, 1.5519076737591642, 15763000000
-0.018529920144724835, 1.514587305119166, 1.550944244180278, 15771000000
0.027040714076427396, 1.484675631918447, 1.5514207645912115, 15776000000
-0.031340605889953646, 1.51274916208404, 1.5519963644908847, 15781000000
0.9755235985642454, 1.5161845444760131, 1.5518306338386165, 15786000000
-0.9859928931778633, 1.5114883083154573, 1.5507894241749913, 15791000000
0.06213737249557991, 1.5182333896167122, 1.5519339618198333, 15796000000
1.0663042364508903, 1.5064180534074174, 1.551858828272358, 15801000000
-0.7317371518722019, 1.5093143494866492, 1.548541628918539, 15806000000
0.03838676733925744, 1.5154487302304656, 1.549450385184659, 15811000000
0.7016173552682796, 1.4564365246346127, 1.5462140536586333, 15816000000
-1.2520274464012469, 1.5250267795042616, 1.5448736577576374, 15821000000
0.04573300331183181, 1.4919670565511352, 1.5452211573226842, 15827000000
0.6194130515978551, 1.4827948635403527, 1.5409627497419573, 15832000000
-0.9912728713825041, 1.5212393439416512, 1.5400352053742825, 15837000000
0.9821269969215707, 1.4345106344211478, 1.5381322197897942, 15842000000
-0.03786791161289658, 1.5505926093794105, 1.5343308061187693, 15847000000
-0.9327333209689618, 1.531092918637419, 1.5338425416969088, 15852000000
0.9417591062560424, 1.3863591958690213, 1.532748139261413, 15857000000
0.13761399739385635, 1.4163566205424278, 1.5301853180838334, 15862000000
-0.013543361692449546, 1.5843109910824622, 1.5246486700710113, 15867000000
0.02855921935922285, 1.48280440358743, 1.5239459260644987, 15872000000
-0.049433718262808575, 1.3830694382921527, 1.5202976040870826, 15877000000
0.13047936716342645, 1.5127575765421735, 1.5159140033930905, 15884000000
-0.09029584740005653, 1.3432708594522325, 1.5130170066643696, 15889000000
0.007995260572794895, 1.5372648060821668, 1.509618156367877, 15894000000
0.09562279039357553, 1.519501284634964, 1.5064876920780876, 15899000000
-0.0006152100314153926, 1.4448433028056722, 1.5042631483774511, 15904000000
0.039600277248009054, 1.5632667252617896, 1.5014919763967842, 15909000000
0.0012924505600243339, 1.413984667167323, 1.4985426260488877, 15914000000
0.013067775174900657, 1.3169005906214337, 1.4970742754592192, 15919000000
-0.14590092811418395, 1.5377204322394755, 1.494568372810593, 15924000000
0.11522511600493976, 1.5087028009728425, 1.4929365407107313, 15929000000
0.007211171353090708, 1.3954650285117542, 1.4910367291567712, 15935000000
-0.11000457034879774, 1.535998061061048, 1.489681042671047, 15940000000
0.1295078136504815, 1.4550935776899165, 1.4884446044338941, 15945000000
0.019781173176670944, 1.3714036674551837, 1.48781736326238, 15950000000
-0.052489664760823534, 1.4871307511577048, 1.4870876382582223, 15955000000
-0.06155663425476847, 1.4720534074403948, 1.4860070542807986, 15960000000
0.1158384239361256, 1.4528040593799176, 1.4855701082336563, 15965000000
0.01171974545473665, 1.392002330140238, 1.4847033864383685, 15970000000
-0.0644699087100151, 1.5225300320380555, 1.483979376695021, 15975000000
-0.13393673765951947, 1.546479252077129, 1.4834226755927158, 15980000000
0.1491910624975783, 1.3946601026123113, 1.483025461838374, 15985000000
0.0055906808812959535, 1.4320768888452056, 1.482734190221541, 15990000000
-0.00866877636107912, 1.3947647505193153, 1.4826929937194142, 15995000000
-0.010873695841204196, 1.4881538152686586, 1.4820691711908307, 16000000000
-0.13177654788995216, 1.510956732638065, 1.4810946323196732, 16005000000
7.134850161310575, 1.4226489408751894, 1.4820174931805539, 16010000000
-0.1757721671648647, 1.5136268003776525, 1.4824358497466847, 16015000000
-0.08844843298276195, 1.4304288877644424, 1.4824764559947123, 16020000000
-0.08529421859545355, 1.5689762365278292, 1.4818299823492156, 16025000000
-0.02432271028367415, 1.5252685140757214, 1.481270167197273, 16030000000
-0.004170791336310233, 1.4919713091875473, 1.4807720399673523, 16035000000
5.660336408789404, 1.4336045720871247, 1.4806632934641615, 16040000000
1.6590876694986483, 1.536166589043921, 1.4814081972203343, 16045000000
-0.156357741369998, 1.50590873037769, 1.4815736422304875, 16050000000
-0.09140616489504451, 1.5623203789595372, 1.481995308623917, 16055000000
-0.002539862778812508, 1.5672658295038628, 1.4817895981090128, 16060000000
-0.022105534151574867, 1.530885115626511, 1.4819354093324608, 16065000000
-0.042248951162026045, 1.5329375792754412, 1.4818466644860475, 16070000000
6.415031434604003, 1.5252603637131696, 1.4820930957532013, 16075000000
0.026600844856317064, 1.6827631006331722, 1.482754464628831, 16080000000
-0.013082053736974457, 1.5375429818125526, 1.4831406878407303, 16085000000
-0.03069520546074235, 1.582689696986728, 1.4834353744458246, 16090000000
-0.03223674907789649, 1.5763494923483694, 1.4832540578522788, 16096000000
-0.008735528781643038, 1.6484876756861653, 1.4832483310378721, 16101000000
-0.04066598076745864, 1.5950353858895094, 1.482688120968025, 16106000000
-0.024276406920066114, 1.574999892708266, 1.4825894084248077, 16111000000
-0.0024819061109193664, 1.615035183770185, 1.482271389008846, 16116000000
-0.09466338023992645, 1.6076854886071608, 1.482224987248546, 16121000000
-0.5694091704405462, 1.5060857678723258, 1.4826473987631346, 16126000000
0.4518804331165019, 1.730923579855863, 1.4848267666087285, 16131000000
-0.5155105552614895, 1.5729071916693003, 1.4861020314725477, 16136000000
0.013202794975913437, 1.5963184316556567, 1.4889101208201736, 16141000000
0.0001999782825230674, 1.6295275295260745, 1.4911050788645932, 16146000000
0.00994169205500017, 1.594125308514585, 1.4939819866241126, 16151000000
-0.04494152860142771, 1.5791480449772028, 1.4967274751883095, 16156000000
-0.013428880855113493, 1.6338214031204183, 1.499191505067712, 16161000000
-0.02949246515926294, 1.650607430523703, 1.5015767074645776, 16166000000
-0.016305326648972905, 1.5978904766821054, 1.5037315020458435, 16171000000
0.02692303756778064, 1.6454070642732437, 1.5061380330949181, 16176000000
-0.012887159252622158, 1.618256626650269, 1.5084350576812968, 16181000000
-0.0007528387298477296, 1.6255215437707764, 1.5100011679425334, 16186000000
-0.006339044156079535, 1.6215534888683905, 1.5126778117343251, 16191000000
-0.019816227076413145, 1.634119204789615, 1.5145411611779096, 16198000000
-0.028011802920011555, 1.626204470618842, 1.5162398449340913, 16203000000
0.02322102881928451, 1.6298887946244898, 1.5254245965533755, 16244000000
0.023285815208322715, 1.6561191083318398, 1.52616269711999, 16249000000
0.008647015261501786, 1.6352405509266725, 1.5281507756502921, 16256000000
0.780746772542077, 1.5607274164077565, 1.5256943154794256, 16261000000
-1.246190643967781, 1.5237463854480675, 1.5262757604789956, 16266000000
0.05030513534648964, 1.6033098322777988, 1.5296299908109627, 16274000000
-0.05542560744509031, 1.5951643867866203, 1.5286906831467995, 16282000000
0.07081375924084704, 1.5644210750828995, 1.5316640352395638, 16287000000
0.872788354452699, 1.7534744328743685, 1.530177584384417, 16292000000
-0.9676753533454854, 1.6178265827322582, 1.5305324091554289, 16297000000
0.7826164843318328, 1.6875135212078949, 1.532114905504881, 16302000000
0.20452811331729245, 1.6896467613514672, 1.5302107259712456, 16307000000
-0.9404171282836253, 1.6174277216073145, 1.528878497486457, 16312000000
0.6363089968191444, 1.6652616841087362, 1.5300672107927096, 16317000000
0.044854138658742396, 1.652948928601182, 1.5286932505908934, 16322000000
0.0244626717062892, 1.6621106035721633, 1.524929331917909, 16327000000
-0.881988265081852, 1.5656811862789959, 1.5259597686522228, 16332000000
0.903885269931783, 1.6533488226323745, 1.5235653692274158, 16337000000
-0.01855602935578244, 1.6336267815530987, 1.521187322473094, 16342000000
0.024405727638560224, 1.6500670655539118, 1.51827050783014, 16347000000
0.005776652018825754, 1.605646617917795, 1.51652181029938, 16352000000
0.006810730962515856, 1.6410667186951227, 1.5147104134396734, 16357000000
0.02837675065713474, 1.5970224627244891, 1.511919056115774, 16362000000
-0.015803657571364566, 1.569775620534652, 1.5105528433569415, 16367000000
0.011881396044905559, 1.6733841453996243, 1.508432695879655, 16372000000
-0.009798017779939968, 1.5750960337663114, 1.5065193248912188, 16377000000
0.010218306713599985, 1.5900750319018893, 1.5050816471087807, 16382000000
